t_s,telemetry_age_s,airborne,phase,pos_x,pos_y,pos_z,ref_x,ref_y,ref_z,vel_x,vel_y,vel_z,qw,qx,qy,qz,gyro_x,gyro_y,gyro_z,roll_meas_deg,pitch_meas_deg,yaw_meas_deg,pos_err,obs_0,obs_1,obs_2,obs_3,obs_4,obs_5,obs_6,obs_7,obs_8,obs_9,obs_10,obs_11,obs_12,act_roll_rad,act_pitch_rad,act_yaw_rad,act_thrust_N,cmd_roll_deg,cmd_pitch_deg,cmd_yaw,cmd_pwm
0.0,0.0051,0,1,0.10575654357671738,-0.06933988630771637,0.0017437946517020464,0.10552084445953369,-0.06942581385374069,0.5000964999198914,0.012951914221048355,-0.0022570036817342043,0.006983201485127211,0.9963692426681519,-0.0037525140214711428,0.00011455076310085133,0.08504289388656616,-0.0023022915791775177,0.005636208540867668,0.0012583174775927571,-0.42733298547478227,0.04964788879093344,9.756857289606197,0.4983527660369873,-0.0002356991171836853,-8.592754602432251e-05,0.49835270643234253,0.012951914221048355,-0.0022570036817342043,0.006983201485127211,-0.0037525140214711428,0.00011455076310085133,0.08504289388656616,0.9963692426681519,-0.0023022915702313185,0.005636208690702915,0.0012583174975588918,-0.0002356991171836853,-8.592754602432251e-05,0.49835270643234253,-0.006397463381290436,0.07813083380460739,0.49835270643234253,-0.02471916377544403,0.15442070364952087,0.49835270643234253,-0.054749660193920135,0.22690518200397491,0.49835270643234253,-0.09574949741363525,0.2937994599342346,0.49835270643234253,-0.1467091292142868,0.3534563183784485,0.49835270643234253,-0.20637376606464386,0.40440690517425537,0.49835270643234253,-0.2732742428779602,0.4453966021537781,0.49835270643234253,-0.34576326608657837,0.4754161238670349,0.49835270643234253,-0.4220559298992157,0.4937262535095215,0.49835270643234253,-1.1297988891601562,1.1745768785476685,0.6476088762283325,0.20000000298023224,-15.0,15.0,0.0957472866854245,4000.0
0.0208,0.0057,0,1,0.10517916083335876,-0.06931714713573456,-0.00015323871048167348,0.10525626689195633,-0.05320000275969505,0.5000964999198914,0.013007016852498055,-0.0012091082753613591,-0.005700462032109499,0.9963557124137878,-0.0037912961561232805,9.027740452438593e-05,0.0851994976401329,0.006691294187959566,-0.015443307057314217,0.009320658099330017,-0.43199012352270216,0.04732230117451321,9.7748763286816,0.5005093216896057,7.71060585975647e-05,0.016117144376039505,0.5002497434616089,0.013007016852498055,-0.0012091082753613591,-0.005700462032109499,-0.0037912961561232805,9.027740452438593e-05,0.0851994976401329,0.9963557124137878,0.006691294256597757,-0.015443307347595692,0.009320657700300217,7.71060585975647e-05,0.016117144376039505,0.5002497434616089,-0.008619681000709534,0.09409275650978088,0.5002497434616089,-0.02940746396780014,0.16974787414073944,0.5002497434616089,-0.06177438423037529,0.2412196397781372,0.5002497434616089,-0.10492345690727234,0.3067481517791748,0.5002497434616089,-0.15779221057891846,0.3647199273109436,0.5002497434616089,-0.21907885372638702,0.413707435131073,0.5002497434616089,-0.2872743010520935,0.4525045156478882,0.5002497434616089,-0.360699325799942,0.4801558256149292,0.5002497434616089,-0.4375459849834442,0.495980441570282,0.5002497434616089,-1.3426666259765625,1.0842820405960083,0.6404365301132202,0.20000000298023224,-15.0,15.0,0.13178536483623854,8000.0
0.0402,0.005,0,1,0.10421623289585114,-0.06805705279111862,0.0010540660005062819,0.10452549159526825,-0.03793030232191086,0.5000964999198914,0.006037614308297634,0.004778566770255566,0.0017512848135083914,0.9963487386703491,-0.004110022913664579,-0.0004228450998198241,0.08526474237442017,0.005983289171121447,-0.003465764501669413,0.0025007464945102096,-0.4733911338248657,-0.008120088187152643,9.78260489136997,0.4999510645866394,0.00030925869941711426,0.030126750469207764,0.49904242157936096,0.006037614308297634,0.004778566770255566,0.0017512848135083914,-0.004110022913664579,-0.0004228450998198241,0.08526474237442017,0.9963487386703491,0.005983289331197739,-0.00346576445735991,0.0025007463991642,0.00030925869941711426,0.030126750469207764,0.49904242157936096,-0.010767228901386261,0.10780005156993866,0.49904242157936096,-0.03385813534259796,0.1827843189239502,0.49904242157936096,-0.06839487701654434,0.2532331943511963,0.49904242157936096,-0.11352704465389252,0.31741195917129517,0.49904242157936096,-0.16814333200454712,0.37374040484428406,0.49904242157936096,-0.230898916721344,0.42083144187927246,0.49904242157936096,-0.30024853348731995,0.4575255811214447,0.49904242157936096,-0.3744845390319824,0.482919305562973,0.49904242157936096,-0.4517790675163269,0.4963873028755188,0.49904242157936096,-1.5195616483688354,1.005717396736145,0.6378718614578247,0.20000000298023224,-15.0,15.0,0.14724249021301658,12000.0
0.0602,0.0052,0,1,0.10549461841583252,-0.06934338808059692,-0.0006877819541841745,0.10326589643955231,-0.022031007334589958,0.5000964999198914,0.01037028431892395,-0.001139929168857634,-0.00983820017427206,0.9963764548301697,-0.003597102826461196,-0.00013706320896744728,0.08496513217687607,0.018132766863157988,-0.05376938885626795,0.026685802067786292,-0.4120420660962137,0.019373051347610096,9.748024037139595,0.5030192136764526,-0.0022287219762802124,0.047312378883361816,0.5007842779159546,0.01037028431892395,-0.001139929168857634,-0.00983820017427206,-0.003597102826461196,-0.00013706320896744728,0.08496513217687607,0.9963764548301697,0.01813276670873165,-0.05376938730478287,0.0266858022660017,-0.0022287219762802124,0.047312378883361816,0.5007842779159546,-0.01577690988779068,0.12459288537502289,0.5007842779159546,-0.04124762862920761,0.19880253076553345,0.5007842779159546,-0.07801370322704315,0.26811403036117554,0.5007842779159546,-0.12516984343528748,0.3308207392692566,0.5007842779159546,-0.1815548837184906,0.38537853956222534,0.5007842779159546,-0.24578046798706055,0.4304441213607788,0.5007842779159546,-0.31626513600349426,0.4649077355861664,0.5007842779159546,-0.3912733197212219,0.4879208207130432,0.5007842779159546,-0.4689580500125885,0.49891674518585205,0.5007842779159546,-1.5707963705062866,0.8547674417495728,0.6357516050338745,0.20000000298023224,-15.0,15.0,0.07808078175223583,16000.0
0.0804,0.005,0,1,0.10553725808858871,-0.06841600686311722,0.002470739185810089,0.10153268277645111,-0.006437938194721937,0.5000964999198914,0.006275466177612543,0.00501423142850399,0.012037524953484535,0.9963714480400085,-0.003946595825254917,-0.0004914426244795322,0.08500678837299347,-0.012916075373748306,0.023837948675515457,-0.01537618083368201,-0.45539755709928176,-0.017666805909189995,9.752968510945514,0.5014864802360535,-0.004004575312137604,0.061978068202733994,0.49762576818466187,0.006275466177612543,0.00501423142850399,0.012037524953484535,-0.003946595825254917,-0.0004914426244795322,0.08500678837299347,0.9963714480400085,-0.012916075065732002,0.023837948217988014,-0.015376180410385132,-0.004004575312137604,0.061978068202733994,0.49762576818466187,-0.019970707595348358,0.13879546523094177,0.49762576818466187,-0.047757167369127274,0.21216946840286255,0.49762576818466187,-0.08667974919080734,0.2802933156490326,0.49762576818466187,-0.13578005135059357,0.34148964285850525,0.49762576818466187,-0.19384905695915222,0.3942515552043915,0.49762576818466187,-0.25945693254470825,0.43727990984916687,0.49762576818466187,-0.33098816871643066,0.4695151448249817,0.49762576818466187,-0.40668144822120667,0.4901635944843292,0.49762576818466187,-0.4846729338169098,0.4987167716026306,0.49762576818466187,-1.5707963705062866,0.6949621438980103,0.6479214429855347,0.20000000298023224,-15.0,15.0,0.08796972936406593,20000.0
0.1,0.0049,0,1,0.10475537180900574,-0.0684112086892128,0.00025801960146054626,0.09934914112091064,0.008853625506162643,0.5000964999198914,0.007064373232424259,0.0058216857723891735,-0.005416784435510635,0.9963651895523071,-0.0040975348092615604,-4.2649735405575484e-05,0.08507382869720459,-0.10512061912036555,0.28452863546513507,-0.06832383052966,-0.46825728420106943,0.035076279333839805,9.760469516880201,0.5058038830757141,-0.005406230688095093,0.07726483047008514,0.4998384714126587,0.007064373232424259,0.0058216857723891735,-0.005416784435510635,-0.0040975348092615604,-4.2649735405575484e-05,0.08507382869720459,0.9963651895523071,-0.10512062162160873,0.2845286428928375,-0.06832382827997208,-0.005406230688095093,0.07726483047008514,0.4998384714126587,-0.023737609386444092,0.15355238318443298,0.4998384714126587,-0.0537773072719574,0.2260330319404602,0.4998384714126587,-0.09478563815355301,0.29292210936546326,0.4998384714126587,-0.14575284719467163,0.3525725305080414,0.4998384714126587,-0.20542393624782562,0.4035155475139618,0.4998384714126587,-0.2723296284675598,0.4444967210292816,0.4998384714126587,-0.3448224663734436,0.47450703382492065,0.4998384714126587,-0.4211174547672272,0.4928074777126312,0.4998384714126587,-0.499335914850235,0.4989474415779114,0.4998384714126587,-1.5707963705062866,0.5232161283493042,0.6583210229873657,0.20000000298023224,-15.0,15.0,0.10297174123347042,24000.0
0.1197,0.0057,0,1,0.10564658045768738,-0.06846250593662262,0.0026547489687800407,0.09663096070289612,0.02440241165459156,0.5000964999198914,0.00951516255736351,0.0065588378347456455,0.017213784158229828,0.9963960647583008,-0.0045385113917291164,0.0012611529091373086,0.08468016237020493,-0.00754569296185988,0.029875592860455692,0.03554080853111056,-0.5059723167001681,0.18803702751969237,9.7145347732874,0.5061160326004028,-0.00901561975479126,0.09286491572856903,0.49744173884391785,0.00951516255736351,0.0065588378347456455,0.017213784158229828,-0.0045385113917291164,0.0012611529091373086,0.08468016237020493,0.9963960647583008,-0.0075456928461790085,0.02987559325993061,0.035540807992219925,-0.00901561975479126,0.09286491572856903,0.49744173884391785,-0.029745906591415405,0.16853582859039307,0.49744173884391785,-0.062058500945568085,0.2400321513414383,0.49744173884391785,-0.105157770216465,0.30559343099594116,0.49744173884391785,-0.1579824537038803,0.3636053800582886,0.49744173884391785,-0.21923184394836426,0.41263943910598755,0.49744173884391785,-0.2873977720737457,0.45148831605911255,0.49744173884391785,-0.3608017861843109,0.47919541597366333,0.49744173884391785,-0.4376364052295685,0.495078444480896,0.49744173884391785,-0.5160096883773804,0.498746395111084,0.49744173884391785,-1.5707963705062866,0.3912585973739624,0.6451395750045776,0.20000000298023224,-15.0,15.0,0.01110225404782865,28000.0
0.1399,0.0052,0,1,0.10589586198329926,-0.0682961568236351,0.0030184127390384674,0.09341122955083847,0.039911605417728424,0.5000964999198914,0.011424439027905464,0.008478307165205479,0.018466873094439507,0.9964039325714111,-0.0047958544455468655,0.0018600370967760682,0.08456217497587204,-0.050122485187837865,0.1189357672751516,-0.028033220098933477,-0.5295771449778162,0.2588513132876413,9.700620286304591,0.5088726878166199,-0.012484632432460785,0.10820776224136353,0.4970780909061432,0.011424439027905464,0.008478307165205479,0.018466873094439507,-0.0047958544455468655,0.0018600370967760682,0.08456217497587204,0.9964039325714111,-0.05012248456478119,0.11893576383590698,-0.028033219277858734,-0.012484632432460785,0.10820776224136353,0.4970780909061432,-0.03560144454240799,0.18318404257297516,0.4970780909061432,-0.07016252726316452,0.253620982170105,0.4970780909061432,-0.11531686782836914,0.3177841603755951,0.4970780909061432,-0.1699526309967041,0.3740937113761902,0.4970780909061432,-0.23272447288036346,0.42116308212280273,0.4970780909061432,-0.3020867705345154,0.45783326029777527,0.4970780909061432,-0.3763315677642822,0.4832012951374054,0.4970780909061432,-0.4536307454109192,0.4966425895690918,0.4970780909061432,-0.532080888748169,0.49782612919807434,0.4970780909061432,-1.5707963705062866,0.19315743446350098,0.665584921836853,0.20000000298023224,-15.0,13.0335528881667,-0.01672671991776794,32000.0
0.1601,0.0045,0,1,0.10556147247552872,-0.06855396926403046,0.0025573321618139744,0.08971568942070007,0.05525733157992363,0.5000964999198914,0.01221443247050047,0.008935727179050446,0.010548092424869537,0.9964441657066345,-0.0052010416984558105,0.0023962657433003187,0.08404932916164398,-0.04370246100463269,0.029427307947589697,0.02252826014687413,-0.5708155094915149,0.32371016648990253,9.641256343504757,0.5129576325416565,-0.015845783054828644,0.12381130456924438,0.4975391626358032,0.01221443247050047,0.008935727179050446,0.010548092424869537,-0.0052010416984558105,0.0023962657433003187,0.08404932916164398,0.9964441657066345,-0.04370246082544327,0.029427308589220047,0.022528260946273804,-0.015845783054828644,0.12381130456924438,0.4975391626358032,-0.04131770133972168,0.19802053272724152,0.4975391626358032,-0.07808490097522736,0.26733145117759705,0.4975391626358032,-0.12524205446243286,0.33003735542297363,0.4975391626358032,-0.18162798881530762,0.38459426164627075,0.4975391626358032,-0.24585428833961487,0.42965883016586304,0.4975391626358032,-0.31633952260017395,0.4641212821006775,0.4975391626358032,-0.39134806394577026,0.4871331453323364,0.4975391626358032,-0.46903297305107117,0.498127818107605,0.4975391626358032,-0.5474814176559448,0.49683451652526855,0.4975391626358032,-1.5707963705062866,0.0695643424987793,0.6604739427566528,0.20000000298023224,-15.0,8.509648058974651,-0.13545460551744087,36000.0
0.1802,0.0056,0,1,0.10467877238988876,-0.06838956475257874,0.0007018393953330815,0.08555997908115387,0.07040200382471085,0.5000964999198914,0.011523434892296791,0.01168648712337017,0.003212932264432311,0.9964008927345276,-0.007469262462109327,0.0025448896922171116,0.08438596874475479,-0.535890828636155,0.12202840470289814,0.07522667749611812,-0.828270475987606,0.36280288818710427,9.679103380112043,0.518674910068512,-0.019118793308734894,0.13879156112670898,0.49939465522766113,0.011523434892296791,0.01168648712337017,0.003212932264432311,-0.007469262462109327,0.0025448896922171116,0.08438596874475479,0.9964008927345276,-0.5358908176422119,0.1220284029841423,0.07522667944431305,-0.019118793308734894,0.13879156112670898,0.49939465522766113,-0.04690869525074959,0.2121642529964447,0.49939465522766113,-0.08583447337150574,0.2802863121032715,0.49939465522766113,-0.13493764400482178,0.3414803147315979,0.49939465522766113,-0.1930091381072998,0.39423951506614685,0.49939465522766113,-0.2586190104484558,0.4372647702693939,0.49939465522766113,-0.33015176653862,0.4694966673851013,0.49939465522766113,-0.4058460295200348,0.49014154076576233,0.49939465522766113,-0.48383793234825134,0.49869105219841003,0.49939465522766113,-0.562207043170929,0.49493470788002014,0.49939465522766113,-1.5707963705062866,-0.048815011978149414,0.6691151857376099,0.20000000298023224,-15.0,2.8563769478730645,-0.05976053230288724,38675.0
0.1999,0.0041,0,1,0.10441985726356506,-0.06767266988754272,-0.00039360622758977115,0.08095190674066544,0.08534356951713562,0.5000964999198914,0.012316257692873478,0.01929161325097084,0.013807008042931557,0.9962347149848938,-0.015665560960769653,0.003955287858843803,0.08516684174537659,-1.3331683216815244,0.5966643311593313,0.03190900997948826,-1.7501501172615306,0.604433719650851,9.763275034699065,0.5238845944404602,-0.023467950522899628,0.15301623940467834,0.500490128993988,0.012316257692873478,0.01929161325097084,0.013807008042931557,-0.015665560960769653,0.003955287858843803,0.08516684174537659,0.9962347149848938,-1.3331682682037354,0.596664309501648,0.03190901130437851,-0.023467950522899628,0.15301623940467834,0.500490128993988,-0.053538501262664795,0.22548411786556244,0.500490128993988,-0.09457530081272125,0.2923557162284851,0.500490128993988,-0.1455678939819336,0.351984441280365,0.500490128993988,-0.20526066422462463,0.4029020369052887,0.500490128993988,-0.27218377590179443,0.44385474920272827,0.500490128993988,-0.34468939900398254,0.47383418679237366,0.500490128993988,-0.4209921658039093,0.49210214614868164,0.500490128993988,-0.49921324849128723,0.49820882081985474,0.500490128993988,-0.5774266123771667,0.49200382828712463,0.500490128993988,-1.5707963705062866,-0.28493428230285645,0.6996852159500122,0.20000000298023224,-15.0,-6.071811526063469,0.10858277687117687,38675.0
0.22,0.0053,0,1,0.10300227999687195,-0.06466809660196304,0.002401969628408551,0.07584603130817413,0.10022484511137009,0.5000964999198914,0.009836092591285706,0.050388410687446594,0.059789855033159256,0.9959505796432495,-0.02517065964639187,0.005442589055746794,0.08612361550331116,-1.9294483586955573,0.6607309322389315,0.1939035605461788,-2.820415701449943,0.8695928593690292,9.863149307077517,0.5250018835067749,-0.027156248688697815,0.16489294171333313,0.4976945221424103,0.009836092591285706,0.050388410687446594,0.059789855033159256,-0.02517065964639187,0.005442589055746794,0.08612361550331116,0.9959505796432495,-1.9294483661651611,0.6607309579849243,0.19390356540679932,-0.027156248688697815,0.16489294171333313,0.4976945221424103,-0.05949188023805618,0.23637884855270386,0.4976945221424103,-0.10261226445436478,0.30192625522613525,0.4976945221424103,-0.15545563399791718,0.3599211573600769,0.4976945221424103,-0.2167208194732666,0.4089355170726776,0.4976945221424103,-0.2848992645740509,0.4477624297142029,0.4976945221424103,-0.35831218957901,0.47544586658477783,0.4976945221424103,-0.4351519048213959,0.4913041591644287,0.4976945221424103,-0.513526439666748,0.49494683742523193,0.4976945221424103,-0.5915058255195618,0.48628419637680054,0.4976945221424103,-1.5707963705062866,-0.4260317087173462,0.6719893217086792,0.20000000298023224,-15.0,-10.535905763031735,0.3083313216280932,38675.0
0.2404,0.0055,0,1,0.10395128279924393,-0.06489726155996323,0.0028078549075871706,0.07022717595100403,0.1150573194026947,0.5000964999198914,0.021378491073846817,0.04643568396568298,0.08584357053041458,0.9951328635215759,-0.04280296713113785,0.010430213995277882,0.08813447505235672,-2.8645274937900918,0.36033325220731405,0.28774040773977066,-4.7831143180261675,1.6219009607704062,10.054688260141479,0.5299216508865356,-0.0337241068482399,0.17995458841323853,0.49728864431381226,0.021378491073846817,0.04643568396568298,0.08584357053041458,-0.04280296713113785,0.010430213995277882,0.08813447505235672,0.9951328635215759,-2.864527463912964,0.36033326387405396,0.28774040937423706,-0.0337241068482399,0.17995458841323853,0.49728864431381226,-0.06831087172031403,0.25037890672683716,0.49728864431381226,-0.11348859965801239,0.31452563405036926,0.49728864431381226,-0.16814488172531128,0.370815247297287,0.49728864431381226,-0.23093387484550476,0.4178617298603058,0.49728864431381226,-0.30030953884124756,0.45450660586357117,0.49728864431381226,-0.3745635747909546,0.47984760999679565,0.49728864431381226,-0.45186764001846313,0.4932607114315033,0.49728864431381226,-0.5303182601928711,0.49441564083099365,0.49728864431381226,-0.6079836487770081,0.48328399658203125,0.49728864431381226,-1.5707963705062866,-0.6522676944732666,0.6501449346542358,0.20000000298023224,-15.0,-12.767952881515868,0.6914092277560162,38675.0
0.2598,0.0058,0,1,0.10372733324766159,-0.0644744485616684,0.004468442406505346,0.06431739777326584,0.12929672002792358,0.5000964999198914,0.005813740659505129,0.058673422783613205,0.10431644320487976,0.993395209312439,-0.06935340166091919,0.01273867767304182,0.09050876647233963,-2.9138420466434156,0.15232953533544027,0.20099509247586905,-7.792273983774024,2.1699239372731665,10.26392998390356,0.5336174368858337,-0.03940993547439575,0.19377116858959198,0.4956280589103699,0.005813740659505129,0.058673422783613205,0.10431644320487976,-0.06935340166091919,0.01273867767304182,0.09050876647233963,0.993395209312439,-2.913841962814331,0.15232953429222107,0.2009950876235962,-0.03940993547439575,0.19377116858959198,0.4956280589103699,-0.07615147531032562,0.2630956768989563,0.4956280589103699,-0.12328540533781052,0.32581907510757446,0.4956280589103699,-0.179651141166687,0.38039684295654297,0.4956280589103699,-0.24386075139045715,0.42548513412475586,0.4956280589103699,-0.3143332004547119,0.4599737524986267,0.4956280589103699,-0.38933324813842773,0.483013391494751,0.4956280589103699,-0.4670141041278839,0.49403679370880127,0.4956280589103699,-0.545462965965271,0.49277251958847046,0.4956280589103699,-0.6227483153343201,0.4792516827583313,0.4956280589103699,-1.5707963705062866,-0.7613696455955505,0.6747876405715942,0.20000000298023224,-15.0,-13.883976440757934,1.109892675280167,38675.0
0.2797,0.0046,0,1,0.10388863831758499,-0.0626150593161583,0.006148698274046183,0.05785806477069855,0.14358797669410706,0.5000964999198914,0.00461583212018013,0.09656205773353577,0.12269015610218048,0.9906073212623596,-0.09951680153608322,0.011417631059885025,0.09306582063436508,-1.9774529026086716,-0.6363851790807814,0.15474029533320724,-11.256656326743224,2.358043362942936,10.501730220072874,0.5372363924980164,-0.046030573546886444,0.20620304346084595,0.4939478039741516,0.00461583212018013,0.09656205773353577,0.12269015610218048,-0.09951680153608322,0.011417631059885025,0.09306582063436508,0.9906073212623596,-1.9774528741836548,-0.6363852024078369,0.15474028885364532,-0.046030573546886444,0.20620304346084595,0.4939478039741516,-0.0849282294511795,0.2743411362171173,0.4939478039741516,-0.13400614261627197,0.33555543422698975,0.4939478039741516,-0.1920558512210846,0.3883385956287384,0.4939478039741516,-0.25764796137809753,0.4313909411430359,0.4939478039741516,-0.3291673958301544,0.4636523425579071,0.4939478039741516,-0.40485310554504395,0.4843284785747528,0.4939478039741516,-0.48284146189689636,0.4929101765155792,0.4939478039741516,-0.5612121224403381,0.48918616771698,0.4939478039741516,-0.6380353569984436,0.473248153924942,0.4939478039741516,-1.5707963705062866,-0.8059855103492737,0.7121175527572632,0.20000000298023224,-15.0,-14.441988220378967,1.5854931476187724,38675.0
0.3007,0.0051,0,1,0.1029263362288475,-0.05884093791246414,0.007802823092788458,0.05087161064147949,0.15783053636550903,0.5000964999198914,-0.01298725139349699,0.1580430120229721,0.1325548142194748,0.9882119297981262,-0.11985750496387482,0.002352130366489291,0.0952039435505867,-0.8252976428490154,-1.2310362270350401,0.13005300841001127,-13.681866317865689,1.5741486623068608,10.816858799987035,0.5403788685798645,-0.05205472558736801,0.21667146682739258,0.49229368567466736,-0.01298725139349699,0.1580430120229721,0.1325548142194748,-0.11985750496387482,0.002352130366489291,0.0952039435505867,0.9882119297981262,-0.8252976536750793,-1.2310361862182617,0.13005301356315613,-0.05205472558736801,0.21667146682739258,0.49229368567466736,-0.09309439361095428,0.28354132175445557,0.49229368567466736,-0.14408954977989197,0.34316784143447876,0.49229368567466736,-0.2037844955921173,0.3940829038619995,0.49229368567466736,-0.27070939540863037,0.4350327253341675,0.49229368567466736,-0.34321627020835876,0.46500906348228455,0.49229368567466736,-0.41951984167099,0.4832737445831299,0.49229368567466736,-0.4977411925792694,0.48937705159187317,0.49229368567466736,-0.575954258441925,0.48316872119903564,0.49229368567466736,-0.6522331833839417,0.4648016095161438,0.49229368567466736,-1.5707963705062866,-0.7565398216247559,0.7073019742965698,0.20000000298023224,-15.0,-14.720994110189483,2.215750307447126,38675.0
0.3203,0.0054,0,1,0.1043904572725296,-0.056458037346601486,0.010265020653605461,0.04346784949302673,0.1717880219221115,0.5000964999198914,0.0008193705580197275,0.20083856582641602,0.14430736005306244,0.987072229385376,-0.1269589364528656,-0.008696851320564747,0.09742826223373413,-0.467732280541648,-1.4777241730188073,0.022251670061723385,-14.615856780798158,0.4337295415816786,11.218514830777949,0.5438223481178284,-0.06092260777950287,0.2282460629940033,0.48983147740364075,0.0008193705580197275,0.20083856582641602,0.14430736005306244,-0.1269589364528656,-0.008696851320564747,0.09742826223373413,0.987072229385376,-0.4677322804927826,-1.4777241945266724,0.022251669317483902,-0.06092260777950287,0.2282460629940033,0.48983147740364075,-0.10405455529689789,0.29378584027290344,0.48983147740364075,-0.15690815448760986,0.35177141427993774,0.48983147740364075,-0.21818199753761292,0.4007749557495117,0.48983147740364075,-0.2863672971725464,0.43958985805511475,0.48983147740364075,-0.3597850799560547,0.46726033091545105,0.48983147740364075,-0.4366276264190674,0.4831050932407379,0.48983147740364075,-0.5150027275085449,0.48673394322395325,0.48983147740364075,-0.5929806232452393,0.47805753350257874,0.48983147740364075,-0.6686411499977112,0.45728951692581177,0.48983147740364075,-1.5707963705062866,-0.9757248163223267,0.728162407875061,0.20000000298023224,-15.0,-14.860497055094742,3.019062369028942,38675.0
0.3399,0.0047,0,1,0.10234128683805466,-0.04925064370036125,0.013711309991776943,0.03578243404626846,0.18524189293384552,0.5000964999198914,-0.025124043226242065,0.27922287583351135,0.15460601449012756,0.9859521389007568,-0.1322818100452423,-0.024010367691516876,0.09910310059785843,-0.4354491089125712,-1.423750819312553,-0.007265039995600812,-15.40649393043796,-1.2105821114816107,11.643358311288392,0.5440472364425659,-0.0665588527917862,0.23449254035949707,0.48638519644737244,-0.025124043226242065,0.27922287583351135,0.15460601449012756,-0.1322818100452423,-0.024010367691516876,0.09910310059785843,0.9859521389007568,-0.43544912338256836,-1.423750877380371,-0.007265040185302496,-0.0665588527917862,0.23449254035949707,0.48638519644737244,-0.11170083284378052,0.2986644208431244,0.48638519644737244,-0.16632571816444397,0.35498449206352234,0.48638519644737244,-0.22908851504325867,0.4020659327507019,0.48638519644737244,-0.2984437346458435,0.4387494921684265,0.48638519644737244,-0.37268364429473877,0.4641318619251251,0.48638519644737244,-0.449980229139328,0.477588027715683,0.48638519644737244,-0.528430163860321,0.4787867069244385,0.48638519644737244,-0.6061017513275146,0.467698335647583,0.48638519644737244,-0.6810824871063232,0.44459596276283264,0.48638519644737244,-1.5707963705062866,-0.9250240325927734,0.7285312414169312,0.20000000298023224,-15.0,-14.93024852754737,3.868749330049852,38675.0
0.3601,0.0053,0,1,0.09895721077919006,-0.03939928114414215,0.016734879463911057,0.027464356273412704,0.19879670441150665,0.5000964999198914,-0.06449887156486511,0.37430310249328613,0.15550917387008667,0.9845128059387207,-0.1384313851594925,-0.03887813538312912,0.10028805583715439,-0.3749155904931247,-1.3540156798527192,-0.042064521226882284,-16.302419734545904,-2.7963427783870274,12.033403583841524,0.5435871481895447,-0.07149285078048706,0.2381959855556488,0.4833616316318512,-0.06449887156486511,0.37430310249328613,0.15550917387008667,-0.1384313851594925,-0.03887813538312912,0.10028805583715439,0.9845128059387207,-0.37491559982299805,-1.3540157079696655,-0.042064521461725235,-0.07149285078048706,0.2381959855556488,0.4833616316318512,-0.11865285784006119,0.3008997440338135,0.4833616316318512,-0.1750412881374359,0.35545408725738525,0.4833616316318512,-0.23926964402198792,0.40051567554473877,0.4833616316318512,-0.30975642800331116,0.4349749684333801,0.4833616316318512,-0.3847660422325134,0.45798343420028687,0.4833616316318512,-0.4624514579772949,0.4689745306968689,0.4833616316318512,-0.5408998727798462,0.46767765283584595,0.4833616316318512,-0.6181795597076416,0.45412468910217285,0.4833616316318512,-0.692387580871582,0.4286494255065918,0.4833616316318512,-1.1885836124420166,-0.7772953510284424,0.7315284013748169,0.20000000298023224,-15.0,-14.965124263773685,4.6488398751561135,38675.0
0.3799,0.0056,0,1,0.09500404447317123,-0.027583930641412735,0.021019326522946358,0.018905410543084145,0.21180693805217743,0.5000964999198914,-0.10303255915641785,0.45973992347717285,0.16359224915504456,0.9830235242843628,-0.14339005947113037,-0.05314216762781143,0.10138034075498581,-0.42470075720057954,-1.1524653848685957,-0.09132851563138708,-17.068958683321085,-4.324558244647757,12.425575014631356,0.5409380197525024,-0.07609863579273224,0.23939086496829987,0.47907716035842896,-0.10303255915641785,0.45973992347717285,0.16359224915504456,-0.14339005947113037,-0.05314216762781143,0.10138034075498581,0.9830235242843628,-0.4247007668018341,-1.1524653434753418,-0.09132851660251617,-0.07609863579273224,0.23939086496829987,0.47907716035842896,-0.12518851459026337,0.30059555172920227,0.47907716035842896,-0.18324854969978333,0.3533673584461212,0.47907716035842896,-0.2488490641117096,0.3964068591594696,0.47907716035842896,-0.32037481665611267,0.428654283285141,0.47907716035842896,-0.3960645794868469,0.44931560754776,0.47907716035842896,-0.47405463457107544,0.4578820765018463,0.47907716035842896,-0.5524245500564575,0.4541427493095398,0.47907716035842896,-0.6292446255683899,0.43818968534469604,0.47907716035842896,-0.7026233673095703,0.4104157090187073,0.47907716035842896,-0.6826193928718567,-0.6690525412559509,0.7476247549057007,0.20000000298023224,-15.0,-14.982562131886842,5.433182736735779,38675.0
0.3997,0.0051,0,1,0.09084034711122513,-0.018467698246240616,0.025053873658180237,0.009935284033417702,0.2245582938194275,0.5000964999198914,-0.15432614088058472,0.5207434296607971,0.17194610834121704,0.9816575646400452,-0.14696089923381805,-0.06646105647087097,0.10164574533700943,-0.4405386094927944,-0.8842176185430103,-0.17597281317705474,-17.672867327942512,-5.774188494182639,12.721622172440695,0.5396969318389893,-0.08090506494045258,0.2430259883403778,0.4750426411628723,-0.15432614088058472,0.5207434296607971,0.17194610834121704,-0.14696089923381805,-0.06646105647087097,0.10164574533700943,0.9816575646400452,-0.440538614988327,-0.8842176198959351,-0.1759728193283081,-0.08090506494045258,0.2430259883403778,0.4750426411628723,-0.13187925517559052,0.3026704490184784,0.4750426411628723,-0.19155631959438324,0.3536064624786377,0.4750426411628723,-0.25846680998802185,0.39457982778549194,0.4750426411628723,-0.3309631645679474,0.4245816171169281,0.4750426411628723,-0.4072602689266205,0.44287312030792236,0.4750426411628723,-0.485479474067688,0.4490039050579071,0.4750426411628723,-0.5636947751045227,0.44282305240631104,0.4750426411628723,-0.639980137348175,0.4244827330112457,0.4750426411628723,-0.7124572992324829,0.39443454146385193,0.4750426411628723,-0.3251684904098511,-0.5563184022903442,0.7696787118911743,0.20000000298023224,-15.0,-14.991281065943422,6.025277052354432,38675.0
0.4206,0.0051,0,1,0.08675866574048996,-0.008675389923155308,0.02963995933532715,0.00029354073922149837,0.23738233745098114,0.5000964999198914,-0.19993941485881805,0.5790575742721558,0.182881698012352,0.9802898168563843,-0.150687575340271,-0.07793182134628296,0.10124115645885468,-0.4447716374664481,-0.7349289970535202,-0.23663919004538264,-18.274384945623908,-7.023704629810174,12.923886681604044,0.5379126071929932,-0.08646512776613235,0.24605773389339447,0.4704565405845642,-0.19993941485881805,0.5790575742721558,0.182881698012352,-0.150687575340271,-0.07793182134628296,0.10124115645885468,0.9802898168563843,-0.4447716474533081,-0.7349290251731873,-0.23663918673992157,-0.08646512776613235,0.24605773389339447,0.4704565405845642,-0.13932673633098602,0.3040359914302826,0.4704565405845642,-0.2006073296070099,0.35303106904029846,0.4704565405845642,-0.26879799365997314,0.391836553812027,0.4704565405845642,-0.34221962094306946,0.41949689388275146,0.4704565405845642,-0.41906431317329407,0.4353310465812683,0.4704565405845642,-0.4974399507045746,0.4389490783214569,0.4704565405845642,-0.575416624546051,0.43026190996170044,0.4704565405845642,-0.6510743498802185,0.4094834327697754,0.4704565405845642,-0.722550094127655,0.3771253228187561,0.4704565405845642,0.010064482688903809,-0.4807009696960449,0.7900663614273071,0.20000000298023224,-7.211673809471667,-14.995640532971711,6.429806070681139,38675.0
0.4404,0.0054,0,1,0.07832187414169312,0.007019629701972008,0.03683644160628319,-0.00940848421305418,0.24947288632392883,0.5000964999198914,-0.26889804005622864,0.6666259765625,0.20002003014087677,0.9789642691612244,-0.1547187715768814,-0.08762648701667786,0.1000535637140274,-0.17785566806774075,-0.6042868974103833,-0.24639473194774958,-18.88553569248332,-8.082918454180183,13.017602494136005,0.5301792621612549,-0.08773035556077957,0.24245326220989227,0.46326005458831787,-0.26889804005622864,0.6666259765625,0.20002003014087677,-0.1547187715768814,-0.08762648701667786,0.1000535637140274,0.9789642691612244,-0.17785567045211792,-0.6042869091033936,-0.24639473855495453,-0.08773035556077957,0.24245326220989227,0.46326005458831787,-0.14236390590667725,0.2987649440765381,0.46326005458831787,-0.20513390004634857,0.3458367586135864,0.46326005458831787,-0.2744947671890259,0.38250964879989624,0.46326005458831787,-0.34873855113983154,0.40788063406944275,0.46326005458831787,-0.4260371923446655,0.4213249385356903,0.46326005458831787,-0.5044873356819153,0.42251157760620117,0.46326005458831787,-0.5821572542190552,0.4114112854003906,0.46326005458831787,-0.6571344137191772,0.3882974088191986,0.46326005458831787,-0.7275726795196533,0.3537391126155853,0.46326005458831787,0.4549309015274048,-0.2313147783279419,0.7989436388015747,0.20000000298023224,3.894163095264166,-14.124500535083492,6.61723769574505,38675.0
0.4603,0.0051,0,1,0.07200000435113907,0.022321123629808426,0.03803020715713501,-0.0196890477091074,0.2614929974079132,0.5000964999198914,-0.3205307424068451,0.7454192042350769,0.1692432463169098,0.9779608249664307,-0.15738698840141296,-0.09544360637664795,0.09854168444871902,0.4060872252622296,-0.5269348176273002,-0.26195623134259827,-19.309922890859657,-8.955183863180679,13.034171962985223,0.5283136367797852,-0.09168905019760132,0.23917187750339508,0.46206629276275635,-0.3205307424068451,0.7454192042350769,0.1692432463169098,-0.15738698840141296,-0.09544360637664795,0.09854168444871902,0.9779608249664307,0.4060872197151184,-0.526934802532196,-0.26195624470710754,-0.09168905019760132,0.23917187750339508,0.46206629276275635,-0.1480763852596283,0.2937273383140564,0.46206629276275635,-0.21230384707450867,0.3387902081012726,0.46206629276275635,-0.282789945602417,0.37325090169906616,0.46206629276275635,-0.35779908299446106,0.3962608575820923,0.46206629276275635,-0.43548429012298584,0.4072535037994385,0.46206629276275635,-0.5139327049255371,0.4059581756591797,0.46206629276275635,-0.5912126898765564,0.39240676164627075,0.46206629276275635,-0.6654212474822998,0.3669329583644867,0.46206629276275635,-0.7347311973571777,0.33016398549079895,0.46206629276275635,0.7050610780715942,-0.08203434944152832,0.8094929456710815,0.20000000298023224,9.447081547632084,-9.412361266592223,6.650376633443498,38675.0
0.48,0.0048,0,1,0.06208391487598419,0.042656052857637405,0.04587603732943535,-0.030187644064426422,0.27301499247550964,0.5000964999198914,-0.3768244683742523,0.8297862410545349,0.19506393373012543,0.9781488180160522,-0.15353801846504211,-0.1008080244064331,0.09739994257688522,1.5176819756982474,-0.2936144089981039,-0.2790623142354225,-18.94002009729817,-9.630948510245009,12.983209221527432,0.5175862312316895,-0.09227155894041061,0.23035894334316254,0.4542204737663269,-0.3768244683742523,0.8297862410545349,0.19506393373012543,-0.15353801846504211,-0.1008080244064331,0.09739994257688522,0.9781488180160522,1.5176819562911987,-0.2936144173145294,-0.27906230092048645,-0.09227155894041061,0.23035894334316254,0.4542204737663269,-0.15033206343650818,0.2831301987171173,0.4542204737663269,-0.21593300998210907,0.32616910338401794,0.4542204737663269,-0.2874590754508972,0.3584158718585968,0.4542204737663269,-0.3631489872932434,0.3790764808654785,0.4542204737663269,-0.4411391019821167,0.3876422345638275,0.4542204737663269,-0.5195090174674988,0.3839021623134613,0.4542204737663269,-0.5963289737701416,0.36794838309288025,0.4542204737663269,-0.6697074174880981,0.34017375111579895,0.4542204737663269,-0.737837553024292,0.30126214027404785,0.4542204737663269,0.6985136270523071,-0.022707819938659668,0.811203122138977,0.20000000298023224,12.223540773816042,-5.35671175551022,6.548451150527925,38675.0
0.5003,0.0039,0,1,0.05591166019439697,0.058868832886219025,0.05426131561398506,-0.04120827838778496,0.28437191247940063,0.5000964999198914,-0.4046287536621094,0.8765111565589905,0.2360227406024933,0.9806583523750305,-0.13669121265411377,-0.10116316378116608,0.09689529985189438,2.596567681757371,0.08197799059655075,-0.29503856768053743,-16.980592739115437,-9.899676077950037,12.76713308952658,0.5089724063873291,-0.09711994230747223,0.2255030870437622,0.4458351731300354,-0.4046287536621094,0.8765111565589905,0.2360227406024933,-0.13669121265411377,-0.10116316378116608,0.09689529985189438,0.9806583523750305,2.5965676307678223,0.08197799324989319,-0.2950385808944702,-0.09711994230747223,0.2255030870437622,0.4458351731300354,-0.1568213850259781,0.2764105498790741,0.4458351731300354,-0.2237514853477478,0.3173518478870392,0.4458351731300354,-0.2962622046470642,0.34731894731521606,0.4458351731300354,-0.3725680708885193,0.365573912858963,0.4458351731300354,-0.4507901966571808,0.3716672658920288,0.4458351731300354,-0.5290024876594543,0.3654489517211914,0.4458351731300354,-0.6052790880203247,0.34707212448120117,0.4458351731300354,-0.6777418255805969,0.3169892430305481,0.4458351731300354,-0.7446064352989197,0.27594104409217834,0.4458351731300354,0.33372604846954346,-0.23720192909240723,0.7901548147201538,0.20000000298023224,13.61177038690802,-9.473690592433286,6.116298886526229,38675.0
0.5202,0.0054,0,1,0.08855754137039185,0.03211500123143196,0.045805174857378006,-0.05241566523909569,0.29521772265434265,0.5000964999198914,-0.30556684732437134,0.7843114137649536,0.23170505464076996,0.9863206148147583,-0.1016024723649025,-0.08897054195404053,0.0945030227303505,3.1454427855777207,0.5777542229440874,-0.2565483498540561,-12.705775213400978,-8.992401511052874,11.949214012525127,0.543578028678894,-0.14097321033477783,0.2631027102470398,0.45429131388664246,-0.30556684732437134,0.7843114137649536,0.23170505464076996,-0.1016024723649025,-0.08897054195404053,0.0945030227303505,0.9863206148147583,3.1454427242279053,0.5777541995048523,-0.25654834508895874,-0.14097321033477783,0.2631027102470398,0.45429131388664246,-0.20223331451416016,0.3121233880519867,0.45429131388664246,-0.2704077363014221,0.35095733404159546,0.45429131388664246,-0.343817800283432,0.3786483705043793,0.45429131388664246,-0.42065590620040894,0.39451462030410767,0.45429131388664246,-0.4990300238132477,0.39816537499427795,0.45429131388664246,-0.5770103335380554,0.3895108103752136,0.45429131388664246,-0.6526767015457153,0.3687639534473419,0.45429131388664246,-0.7241659164428711,0.3364357054233551,0.45429131388664246,-0.7897177934646606,0.2933221161365509,0.45429131388664246,-1.0402663946151733,-1.5707963705062866,0.7183033227920532,0.20000000298023224,-0.6941148065459899,-12.236845296216643,4.480460732523282,38675.0
0.5402,0.0052,0,1,0.08637486398220062,0.04299153760075569,0.05636608600616455,-0.06403188407421112,0.30577564239501953,0.5000964999198914,-0.3285379409790039,0.7659732103347778,0.28118056058883667,0.9902988076210022,-0.06588868796825409,-0.07907552272081375,0.09333805739879608,3.049698682279955,0.7688512777545135,-0.20014412928380465,-8.441367302102009,-8.29772713702052,11.382123469321984,0.5371912121772766,-0.15040674805641174,0.26278409361839294,0.4437304139137268,-0.3285379409790039,0.7659732103347778,0.28118056058883667,-0.06588868796825409,-0.07907552272081375,0.09333805739879608,0.9902988076210022,3.0496985912323,0.7688512802124023,-0.20014412701129913,-0.15040674805641174,0.26278409361839294,0.4437304139137268,-0.2131754755973816,0.3098576068878174,0.4437304139137268,-0.2825353443622589,0.34653240442276,0.4437304139137268,-0.35677844285964966,0.3719053566455841,0.4437304139137268,-0.434076726436615,0.3853517770767212,0.4437304139137268,-0.51252681016922,0.3865405321121216,0.4437304139137268,-0.5901970267295837,0.3754423260688782,0.4437304139137268,-0.6651748418807983,0.3523305058479309,0.4437304139137268,-0.7356140613555908,0.31777408719062805,0.4437304139137268,-0.7997802495956421,0.2726239860057831,0.4437304139137268,-1.3406755924224854,-1.5707963705062866,0.6947020292282104,0.20000000298023224,-7.847057403272995,-13.618422648108321,3.346279646117027,38675.0
0.5602,0.0055,0,1,0.0827561765909195,0.056910376995801926,0.06916394084692001,-0.07609382271766663,0.316062867641449,0.5000964999198914,-0.3347310721874237,0.7398094534873962,0.32960838079452515,0.9930117726325989,-0.031729720532894135,-0.06699860841035843,0.09181477129459381,1.9991069322740513,0.42670388710399626,-0.20325300367182228,-4.35500760436643,-7.30980214421144,10.84349634449258,0.5273482799530029,-0.15884999930858612,0.25915250182151794,0.43093255162239075,-0.3347310721874237,0.7398094534873962,0.32960838079452515,-0.031729720532894135,-0.06699860841035843,0.09181477129459381,0.9930117726325989,1.9991068840026855,0.42670390009880066,-0.20325300097465515,-0.15884999930858612,0.25915250182151794,0.43093255162239075,-0.22307950258255005,0.3042124807834625,0.43093255162239075,-0.2935671806335449,0.33866995573043823,0.43093255162239075,-0.36857736110687256,0.36167654395103455,0.43093255162239075,-0.44626307487487793,0.372665673494339,0.43093255162239075,-0.5247113704681396,0.37136679887771606,0.43093255162239075,-0.6019906997680664,0.35781189799308777,0.43093255162239075,-0.6761981248855591,0.3323347270488739,0.43093255162239075,-0.7455064654350281,0.29556259512901306,0.43093255162239075,-0.8082090020179749,0.2484010010957718,0.43093255162239075,-1.2889533042907715,-1.5707963705062866,0.7327831983566284,0.20000000298023224,-11.423528701636497,-14.30921132405416,2.269025396458226,38675.0
0.5801,0.0053,0,1,0.07889395952224731,0.07161755114793777,0.07783008366823196,-0.08827603608369827,0.3258078694343567,0.5000964999198914,-0.3157308101654053,0.7126036882400513,0.34018760919570923,0.99427330493927,-0.010339653119444847,-0.0575098842382431,0.08946692943572998,0.20464104323197158,-0.0819596231074076,-0.20984657441193816,-1.7792334402543915,-6.460082403269973,10.383907612050388,0.5204492807388306,-0.167169988155365,0.2541903257369995,0.42226642370224,-0.3157308101654053,0.7126036882400513,0.34018760919570923,-0.010339653119444847,-0.0575098842382431,0.08946692943572998,0.99427330493927,0.20464104413986206,-0.08195962011814117,-0.20984657108783722,-0.167169988155365,0.2541903257369995,0.42226642370224,-0.23277395963668823,0.29722458124160767,0.42226642370224,-0.30430227518081665,0.329466313123703,0.42226642370224,-0.3799937069416046,0.3501215875148773,0.42226642370224,-0.45798441767692566,0.3586818277835846,0.42226642370224,-0.5363540649414062,0.35493624210357666,0.42226642370224,-0.6131728887557983,0.33897706866264343,0.42226642370224,-0.6865493655204773,0.3111972510814667,0.42226642370224,-0.7546768188476562,0.27228081226348877,0.42226642370224,-0.8158775568008423,0.22318604588508606,0.42226642370224,-0.8149172067642212,-1.5707963705062866,0.8171461820602417,0.20000000298023224,-13.21176435081825,-14.65460566202708,1.3498479315738285,38675.0
0.6002,0.0051,0,1,0.07361481338739395,0.08460941165685654,0.08489935100078583,-0.10072474926710129,0.33514511585235596,0.5000964999198914,-0.3114243745803833,0.6758617162704468,0.3431788384914398,0.9946382641792297,-0.0054381550289690495,-0.05668995901942253,0.08630986511707306,-1.2907971624222547,-0.3586534300602329,-0.26336600895514534,-1.188048016471539,-6.4210064772320194,9.985474478830954,0.5153164863586426,-0.17433956265449524,0.2505356967449188,0.41519713401794434,-0.3114243745803833,0.6758617162704468,0.3431788384914398,-0.0054381550289690495,-0.05668995901942253,0.08630986511707306,0.9946382641792297,-1.2907971143722534,-0.3586534261703491,-0.2633660137653351,-0.17433956265449524,0.2505356967449188,0.41519713401794434,-0.2412509322166443,0.29150763154029846,0.41519713401794434,-0.31374794244766235,0.32150784134864807,0.41519713401794434,-0.3900454640388489,0.339797705411911,0.41519713401794434,-0.46826478838920593,0.34592679142951965,0.41519713401794434,-0.5464799404144287,0.3397442400455475,0.41519713401794434,-0.6227649450302124,0.32140228152275085,0.41519713401794434,-0.6952414512634277,0.2913525104522705,0.41519713401794434,-0.76212477684021,0.25033488869667053,0.41519713401794434,-0.8217681646347046,0.19935941696166992,0.41519713401794434,-0.40545785427093506,-1.5707963705062866,0.8481875658035278,0.20000000298023224,-14.105882175409125,-14.82730283101354,0.5529816651349709,38675.0
0.6199,0.0055,0,1,0.0691361352801323,0.10162225365638733,0.08913113921880722,-0.11363692581653595,0.34421202540397644,0.5000964999198914,-0.3173105716705322,0.7012665867805481,0.32305049896240234,0.9945688843727112,-0.01913250982761383,-0.06091864034533501,0.08217982947826385,-1.858391492386717,-0.7703196782005559,-0.21132313078881895,-2.774666657397817,-6.778477017751808,9.611413877123244,0.5110267400741577,-0.18277305364608765,0.2425897717475891,0.41096535325050354,-0.3173105716705322,0.7012665867805481,0.32305049896240234,-0.01913250982761383,-0.06091864034533501,0.08217982947826385,0.9945688843727112,-1.858391523361206,-0.7703197002410889,-0.21132312715053558,-0.18277305364608765,0.2425897717475891,0.41096535325050354,-0.2509438395500183,0.28143012523651123,0.41096535325050354,-0.32435131072998047,0.3091280460357666,0.41096535325050354,-0.4011878967285156,0.3250015079975128,0.41096535325050354,-0.4795616865158081,0.32865965366363525,0.41096535325050354,-0.5575428009033203,0.3200123906135559,0.41096535325050354,-0.633211076259613,0.29927265644073486,0.41096535325050354,-0.7047033905982971,0.2669511139392853,0.41096535325050354,-0.7702593207359314,0.22384366393089294,0.41096535325050354,-0.8282646536827087,0.17101174592971802,0.41096535325050354,0.1970738172531128,-1.5707963705062866,0.8480969667434692,0.20000000298023224,-1.4071920971366474,-14.91365141550677,-0.19513953828046154,38675.0
0.6398,0.0053,0,1,0.06291870772838593,0.11614779382944107,0.0933694988489151,-0.1266540288925171,0.35275620222091675,0.5000964999198914,-0.3396521508693695,0.7098931670188904,0.305782288312912,0.9938344955444336,-0.036682385951280594,-0.06965785473585129,0.07805881649255753,-1.7019973573718137,-0.7641541273818863,-0.16725984890718337,-4.849298191498301,-7.627376654691178,9.305362233123564,0.5072950124740601,-0.18957273662090302,0.23660841584205627,0.40672701597213745,-0.3396521508693695,0.7098931670188904,0.305782288312912,-0.036682385951280594,-0.06965785473585129,0.07805881649255753,0.9938344955444336,-1.7019973993301392,-0.7641541361808777,-0.1672598421573639,-0.18957273662090302,0.23660841584205627,0.40672701597213745,-0.2589198648929596,0.27330729365348816,0.40672701597213745,-0.33315420150756836,0.2987060248851776,0.40672701597213745,-0.41044777631759644,0.3121792674064636,0.40672701597213745,-0.488897442817688,0.31339526176452637,0.40672701597213745,-0.5665715336799622,0.3023240268230438,0.40672701597213745,-0.6415573358535767,0.279238224029541,0.40672701597213745,-0.712008535861969,0.24470624327659607,0.40672701597213745,-0.7761904001235962,0.1995784342288971,0.40672701597213745,-0.8325225114822388,0.1449659764766693,0.40672701597213745,0.5330451726913452,-1.5707963705062866,0.8684204816818237,0.20000000298023224,6.796403951431676,-14.956825707753385,-0.8072428262798484,38675.0
0.6598,0.0054,0,1,0.05750518664717674,0.13382552564144135,0.10078645497560501,-0.14005593955516815,0.36096489429473877,0.5000964999198914,-0.36319875717163086,0.7351111769676208,0.3130754828453064,0.9928244948387146,-0.05260075256228447,-0.07762140035629272,0.07419911026954651,-0.7235638905225797,-0.6487101554476136,-0.18777787392007622,-6.7321059008178485,-8.413898530508604,9.043898139445002,0.5000712275505066,-0.1975611299276352,0.22713936865329742,0.39931005239486694,-0.36319875717163086,0.7351111769676208,0.3130754828453064,-0.05260075256228447,-0.07762140035629272,0.07419911026954651,0.9928244948387146,-0.7235639095306396,-0.6487101316452026,-0.18777787685394287,-0.1975611299276352,0.22713936865329742,0.39931005239486694,-0.2680273652076721,0.26164066791534424,0.39931005239486694,-0.34302324056625366,0.28469377756118774,0.39931005239486694,-0.42070212960243225,0.29573118686676025,0.39931005239486694,-0.4991512596607208,0.2944810390472412,0.39931005239486694,-0.5764389634132385,0.2809741497039795,0.39931005239486694,-0.6506622433662415,0.255543053150177,0.39931005239486694,-0.7199933528900146,0.21881400048732758,0.39931005239486694,-0.7827252149581909,0.17169134318828583,0.39931005239486694,-0.837313175201416,0.11533544957637787,0.39931005239486694,0.6720525026321411,-1.5707963705062866,0.9198945760726929,0.20000000298023224,10.898201975715839,-14.978412853876693,-1.3301710136369544,38675.0
0.68,0.0058,0,1,0.05001601204276085,0.14942629635334015,0.10475143790245056,-0.1538870930671692,0.36884602904319763,0.5000964999198914,-0.3986746370792389,0.763893187046051,0.2966138422489166,0.9920580387115479,-0.05911007523536682,-0.0848836824297905,0.07155115157365799,0.8211955758219663,-0.584168646166625,-0.13064895728294376,-7.534123240618075,-9.20459138402422,8.857849469707226,0.49600324034690857,-0.20390310883522034,0.21941973268985748,0.3953450620174408,-0.3986746370792389,0.763893187046051,0.2966138422489166,-0.05911007523536682,-0.0848836824297905,0.07155115157365799,0.9920580387115479,0.8211956024169922,-0.5841686725616455,-0.13064895570278168,-0.20390310883522034,0.21941973268985748,0.3953450620174408,-0.27543196082115173,0.2516602873802185,0.3953450620174408,-0.3511236906051636,0.2723143696784973,0.3953450620174408,-0.42911455035209656,0.2808733582496643,0.3953450620174408,-0.5074841380119324,0.2771264910697937,0.3953450620174408,-0.5843026638031006,0.2611660361289978,0.3953450620174408,-0.6576787233352661,0.23338504135608673,0.3953450620174408,-0.7258055210113525,0.19446752965450287,0.3953450620174408,-0.7870054841041565,0.14537177979946136,0.3953450620174408,-0.8397716879844666,0.0873066782951355,0.3953450620174408,0.4502660036087036,-1.5707963705062866,0.9029399156570435,0.20000000298023224,12.94910098785792,-14.989206426938345,-1.702268353112516,38675.0
0.7009,0.0052,0,1,0.044175226241350174,0.16826137900352478,0.11431990563869476,-0.16789498925209045,0.37624871730804443,0.5000964999198914,-0.41899988055229187,0.7828718423843384,0.3301168978214264,0.992404580116272,-0.05010240525007248,-0.08823145925998688,0.0695420578122139,1.9158366760480532,-0.33074380144182514,-0.19774039337341276,-6.507255838823606,-9.680515318767533,8.568426543583431,0.48688405752182007,-0.21207021176815033,0.20798733830451965,0.3857765793800354,-0.41899988055229187,0.7828718423843384,0.3301168978214264,-0.05010240525007248,-0.08823145925998688,0.0695420578122139,0.992404580116272,1.9158366918563843,-0.33074378967285156,-0.19774039089679718,-0.21207021176815033,0.20798733830451965,0.3857765793800354,-0.284584641456604,0.23794546723365784,0.3857765793800354,-0.36089277267456055,0.2561909854412079,0.3857765793800354,-0.43911564350128174,0.2622746527194977,0.3857765793800354,-0.5173271894454956,0.25604668259620667,0.3857765793800354,-0.5936014652252197,0.23766037821769714,0.3857765793800354,-0.6660605072975159,0.20756852626800537,0.3857765793800354,-0.7329200506210327,0.16651207208633423,0.3857765793800354,-0.7925337553024292,0.11550194025039673,0.3857765793800354,-0.8434337973594666,0.05579419434070587,0.3857765793800354,0.26283347606658936,-1.5707963705062866,0.8784435987472534,0.20000000298023224,13.974550493928959,-14.994603213469173,-2.281114205360109,38675.0
0.72,0.0049,0,1,0.036906834691762924,0.18436361849308014,0.12319041788578033,-0.1817307323217392,0.3830161988735199,0.5000964999198914,-0.4412291944026947,0.7720595002174377,0.3543575406074524,0.9932101368904114,-0.028465332463383675,-0.0897160992026329,0.06835521757602692,2.3787650467468753,-0.3211381455745592,-0.15007585190771752,-4.007048239569081,-10.0392266715225,8.226144002675428,0.4788772761821747,-0.21863757073879242,0.19865258038043976,0.3769060969352722,-0.4412291944026947,0.7720595002174377,0.3543575406074524,-0.028465332463383675,-0.0897160992026329,0.06835521757602692,0.9932101368904114,2.378765106201172,-0.3211381435394287,-0.15007585287094116,-0.21863757073879242,0.19865258038043976,0.3769060969352722,-0.29204031825065613,0.22636298835277557,0.3769060969352722,-0.3688742220401764,0.2422495037317276,0.3769060969352722,-0.44724735617637634,0.24592097103595734,0.3769060969352722,-0.5252299308776855,0.2372869998216629,0.3769060969352722,-0.6009017825126648,0.21656014025211334,0.3769060969352722,-0.6723995804786682,0.18425075709819794,0.3769060969352722,-0.7379628419876099,0.1411544531583786,0.3769060969352722,-0.7959771156311035,0.088332399725914,0.3769060969352722,-0.8450139760971069,0.027085229754447937,0.3769060969352722,0.018916010856628418,-1.5707963705062866,0.8461979627609253,0.20000000298023224,7.529179040618706,-14.997301606734586,-2.9656792871761057,38675.0
0.7399,0.0057,0,1,0.029766861349344254,0.20255140960216522,0.1321459710597992,-0.1961507499217987,0.38951972126960754,0.5000964999198914,-0.4664667546749115,0.7687300443649292,0.36413103342056274,0.9935896396636963,-0.0038672122173011303,-0.09067561477422714,0.0673837661743164,2.17705829104871,-0.2877001607177968,-0.1579423137803504,-1.1594155271442288,-10.35039486651794,7.864543569333109,0.47051408886909485,-0.22591760754585266,0.18696831166744232,0.36795052886009216,-0.4664667546749115,0.7687300443649292,0.36413103342056274,-0.0038672122173011303,-0.09067561477422714,0.0673837661743164,0.9935896396636963,2.177058219909668,-0.2877001464366913,-0.15794230997562408,-0.22591760754585266,0.18696831166744232,0.36795052886009216,-0.3001601994037628,0.21234287321567535,0.36795052886009216,-0.3774581849575043,0.22579093277454376,0.36795052886009216,-0.45590823888778687,0.22698132693767548,0.36795052886009216,-0.5335786938667297,0.21588478982448578,0.36795052886009216,-0.6085569858551025,0.19277454912662506,0.36795052886009216,-0.6789969205856323,0.1582196205854416,0.36795052886009216,-0.7431640625,0.11307089030742645,0.36795052886009216,-0.7994784116744995,0.05844007432460785,0.36795052886009216,-0.8465532660484314,-0.004327669739723206,0.36795052886009216,0.15191113948822021,-1.5707963705062866,0.8639942407608032,0.20000000298023224,8.116523097158431,-14.998650803367294,-3.688880153860756,38675.0
0.7599,0.0052,0,1,0.020145971328020096,0.21926195919513702,0.1365167498588562,-0.21072669327259064,0.3955470323562622,0.5000964999198914,-0.5054336190223694,0.7789615392684937,0.33711758255958557,0.9933491945266724,0.016498427838087082,-0.09242559969425201,0.0666390210390091,1.4068959390895506,-0.2633717014619754,-0.12317257360860184,1.193083807431631,-10.70898289308048,7.564052709902489,0.4653695821762085,-0.23087266087532043,0.17628507316112518,0.36357975006103516,-0.5054336190223694,0.7789615392684937,0.33711758255958557,0.016498427838087082,-0.09242559969425201,0.0666390210390091,0.9933491945266724,1.4068959951400757,-0.26337170600891113,-0.1231725737452507,-0.23087266087532043,0.17628507316112518,0.36357975006103516,-0.3058786690235138,0.19930525124073029,0.36357975006103516,-0.3835623860359192,0.21030844748020172,0.36357975006103516,-0.4620109796524048,0.20902381837368011,0.36357975006103516,-0.5392927527427673,0.19548289477825165,0.36357975006103516,-0.6135047674179077,0.17001919448375702,0.36357975006103516,-0.6828197240829468,0.1332596391439438,0.36357975006103516,-0.745530903339386,0.08610941469669342,0.36357975006103516,-0.8000940084457397,0.02972950041294098,0.36357975006103516,-0.8451656103134155,-0.03449183702468872,0.36357975006103516,0.6582924127578735,-1.5707963705062866,0.9084640741348267,0.20000000298023224,11.558261548579216,-14.999325401683647,-4.289861872721989,38675.0
0.7799,0.0058,0,1,0.011111524887382984,0.2369760125875473,0.14317581057548523,-0.22532548010349274,0.4010540843009949,0.5000964999198914,-0.534944474697113,0.7728736400604248,0.331118106842041,0.9930033087730408,0.030730148777365685,-0.09343402087688446,0.06533142924308777,0.6670161921486003,-0.10452715031619819,-0.14418250944196756,2.8501282066550604,-10.92803366446776,7.255628826319384,0.4584936797618866,-0.23643700778484344,0.16407807171344757,0.35692068934440613,-0.534944474697113,0.7728736400604248,0.331118106842041,0.030730148777365685,-0.09343402087688446,0.06533142924308777,0.9930033087730408,0.6670162081718445,-0.10452715307474136,-0.1441825032234192,-0.23643700778484344,0.16407807171344757,0.35692068934440613,-0.31212475895881653,0.1847466677427292,0.35692068934440613,-0.3901139795780182,0.1933206468820572,0.35692068934440613,-0.4684842824935913,0.18958885967731476,0.35692068934440613,-0.5453059077262878,0.17364318668842316,0.35692068934440613,-0.6186872720718384,0.14587630331516266,0.35692068934440613,-0.6868215203285217,0.106971874833107,0.35692068934440613,-0.748030960559845,0.05788789689540863,0.35692068934440613,-0.8008083701133728,-0.00016704201698303223,0.35692068934440613,-0.8438541889190674,-0.0657634437084198,0.35692068934440613,1.1725448369979858,-1.5707963705062866,0.9485126733779907,0.20000000298023224,13.279130774289609,-14.999662700841824,-4.906709639888203,38675.0
0.7999,0.0058,0,1,-0.0009630675776861608,0.2512431740760803,0.1486731469631195,-0.2402709722518921,0.40616196393966675,0.5000964999198914,-0.5792283415794373,0.757133424282074,0.3260825276374817,0.9926828145980835,0.03802258521318436,-0.09456290304660797,0.06473799794912338,0.5667722787149821,-0.16021205939839767,-0.10115799354351736,3.6954267807129173,-11.108348623919536,7.103047775387267,0.4525113105773926,-0.23930791020393372,0.15491878986358643,0.35142335295677185,-0.5792283415794373,0.757133424282074,0.3260825276374817,0.03802258521318436,-0.09456290304660797,0.06473799794912338,0.9926828145980835,0.5667722821235657,-0.16021205484867096,-0.10115799307823181,-0.23930791020393372,0.15491878986358643,0.35142335295677185,-0.31561070680618286,0.1731865406036377,0.35142335295677185,-0.3938318192958832,0.1792929768562317,0.35142335295677185,-0.4720451533794403,0.17308774590492249,0.35142335295677185,-0.5483248233795166,0.15472367405891418,0.35142335295677185,-0.62079256772995,0.1246529221534729,0.35142335295677185,-0.6876640915870667,0.08361589908599854,0.35142335295677185,-0.7472926378250122,0.03262314200401306,0.35142335295677185,-0.798210084438324,-0.02706979215145111,0.35142335295677185,-0.8391625881195068,-0.09399303793907166,0.35142335295677185,1.3302069902420044,-1.5707963705062866,0.9617656469345093,0.20000000298023224,14.139565387144804,-14.999831350420912,-5.2118717417523985,38675.0
0.8199,0.0049,1,1,-0.01135377399623394,0.26770642399787903,0.15469348430633545,-0.25511983036994934,0.41072264313697815,0.5000964999198914,-0.608616054058075,0.7429780960083008,0.3180268704891205,0.9924570918083191,0.043786194175481796,-0.0956830158829689,0.06288377940654755,0.8390182487851037,-0.2746689972536597,-0.06764164101049018,4.378807000239874,-11.269812425643151,6.818760124491596,0.44629448652267456,-0.24376605451107025,0.14301621913909912,0.3454030156135559,-0.608616054058075,0.7429780960083008,0.3180268704891205,0.043786194175481796,-0.0956830158829689,0.06288377940654755,0.9924570918083191,0.8390182256698608,-0.27466899156570435,-0.06764163821935654,-0.24376605451107025,0.14301621913909912,0.3454030156135559,-0.3205994963645935,0.15890493988990784,0.3454030156135559,-0.3989725410938263,0.16257864236831665,0.3454030156135559,-0.476955384016037,0.15394684672355652,0.3454030156135559,-0.5526278018951416,0.13322213292121887,0.3454030156135559,-0.6241264939308167,0.10091480612754822,0.3454030156135559,-0.6896909475326538,0.05782037973403931,0.3454030156135559,-0.7477067708969116,0.00499996542930603,0.3454030156135559,-0.7967453598976135,-0.056245818734169006,0.3454030156135559,-0.8355992436408997,-0.12440888583660126,0.3454030156135559,1.3685730695724487,-1.5707963705062866,0.9722012281417847,0.20000000298023224,14.569782693572403,-14.999915675210456,-5.780447043543735,38675.0
0.8402,0.0052,1,1,-0.02331695891916752,0.28134772181510925,0.15991632640361786,-0.27048182487487793,0.4149169325828552,0.5000964999198914,-0.63951575756073,0.7127759456634521,0.3106257915496826,0.9918947219848633,0.05338047072291374,-0.09745994955301285,0.06160343438386917,1.1176331020231225,-0.16761406597692072,-0.023543009826572984,5.498647801681858,-11.53209726289128,6.552110651682132,0.4411957859992981,-0.24716486036777496,0.13356921076774597,0.3401801586151123,-0.63951575756073,0.7127759456634521,0.3106257915496826,0.05338047072291374,-0.09745994955301285,0.06160343438386917,0.9918947219848633,1.1176331043243408,-0.16761407256126404,-0.023543009534478188,-0.24716486036777496,0.13356921076774597,0.3401801586151123,-0.3244653046131134,0.1470031440258026,0.3401801586151123,-0.4029155969619751,0.14817923307418823,0.3401801586151123,-0.4805839955806732,0.137068510055542,0.3401801586151123,-0.5555580258369446,0.11394456028938293,0.3401801586151123,-0.625991702079773,0.07937675714492798,0.3401801586151123,-0.6901505589485168,0.03421631455421448,0.3401801586151123,-0.7464549541473389,-0.02042481303215027,0.3401801586151123,-0.7935183048248291,-0.08320112526416779,0.3401801586151123,-0.830181896686554,-0.15256690979003906,0.3401801586151123,1.2836748361587524,-1.5707963705062866,0.9525333642959595,0.20000000298023224,14.784891346786202,-14.999957837605228,-6.313745989162672,38675.0
0.8604,0.0053,1,1,-0.0366048663854599,0.29384517669677734,0.16457529366016388,-0.2859370708465576,0.41861268877983093,0.5000964999198914,-0.6746538877487183,0.6833055019378662,0.3020077347755432,0.9911074638366699,0.0650295689702034,-0.09858973324298859,0.061280425637960434,1.2002883011953667,-0.02163238315914448,-0.009322931148932291,6.852479267894254,-11.735625545579396,6.37112545372211,0.4362430274486542,-0.24933220446109772,0.12476751208305359,0.33552122116088867,-0.6746538877487183,0.6833055019378662,0.3020077347755432,0.0650295689702034,-0.09858973324298859,0.061280425637960434,0.9911074638366699,1.2002882957458496,-0.02163238264620304,-0.009322931058704853,-0.24933220446109772,0.12476751208305359,0.33552122116088867,-0.327020525932312,0.13573819398880005,0.33552122116088867,-0.40546858310699463,0.13442069292068481,0.33552122116088867,-0.48274463415145874,0.1208474338054657,0.33552122116088867,-0.5569460391998291,0.0953526496887207,0.33552122116088867,-0.6262456178665161,0.058564066886901855,0.33552122116088867,-0.6889370083808899,0.01138758659362793,0.33552122116088867,-0.7434765100479126,-0.04501517117023468,0.33552122116088867,-0.7885212302207947,-0.10925537347793579,0.33552122116088867,-0.8229619860649109,-0.1797512173652649,0.33552122116088867,1.2733246088027954,-1.5707963705062866,0.945062518119812,0.20000000298023224,14.892445673393102,-14.999978918802615,-6.675716385082731,38675.0
0.8802,0.0057,1,1,-0.04774533957242966,0.3102383315563202,0.1726003885269165,-0.3009549081325531,0.42171159386634827,0.5000964999198914,-0.6993281245231628,0.6623154878616333,0.3109928071498871,0.9904066920280457,0.07703566551208496,-0.09812405705451965,0.059412382543087006,1.0111587897982912,-0.2179790361431995,0.031082398066641294,8.276271038548698,-11.742827581858746,6.013296381525543,0.42871329188346863,-0.25320956110954285,0.11147326231002808,0.32749611139297485,-0.6993281245231628,0.6623154878616333,0.3109928071498871,0.07703566551208496,-0.09812405705451965,0.059412382543087006,0.9904066920280457,1.01115882396698,-0.21797902882099152,0.03108239732682705,-0.25320956110954285,0.11147326231002808,0.32749611139297485,-0.3311977684497833,0.12005648016929626,0.32749611139297485,-0.4095684885978699,0.1163339912891388,0.32749611139297485,-0.4863920211791992,0.10039746761322021,0.32749611139297485,-0.5597767233848572,0.07263928651809692,0.32749611139297485,-0.627915620803833,0.03374296426773071,0.32749611139297485,-0.6891308426856995,-0.015333771705627441,0.32749611139297485,-0.7419151067733765,-0.0733824372291565,0.32749611139297485,-0.7849687337875366,-0.13897371292114258,0.32749611139297485,-0.8172315359115601,-0.21049252152442932,0.32749611139297485,1.4722286462783813,-1.5707963705062866,0.9756535291671753,0.20000000298023224,14.94622283669655,-14.999989459401307,-7.39137452947588,38675.0
0.9002,0.0058,1,1,-0.11219877749681473,0.2434326857328415,0.1411953866481781,-0.31676185131073,0.4244593381881714,0.5000964999198914,-0.9128552079200745,0.37840139865875244,0.17255441844463348,0.9863789677619934,0.10045258700847626,-0.11209337413311005,0.06632427871227264,0.8238200544972122,-0.13729672335124274,0.03644332053502478,10.868489577884457,-13.559674954965871,6.397612285218696,0.4510284960269928,-0.20456308126449585,0.1810266524553299,0.35890111327171326,-0.9128552079200745,0.37840139865875244,0.17255441844463348,0.10045258700847626,-0.11209337413311005,0.06632427871227264,0.9863789677619934,0.8238200545310974,-0.13729672133922577,0.0364433191716671,-0.20456308126449585,0.1810266524553299,0.35890111327171326,-0.28278648853302,0.18710331618785858,0.35890111327171326,-0.3609974682331085,0.18086831271648407,0.35890111327171326,-0.4372701644897461,0.16247518360614777,0.35890111327171326,-0.5097264647483826,0.13237683475017548,0.35890111327171326,-0.5765823125839233,0.09131436049938202,0.35890111327171326,-0.6361914873123169,0.04029889404773712,0.35890111327171326,-0.6870861649513245,-0.019413411617279053,0.35890111327171326,-0.7280132174491882,-0.08635225892066956,0.35890111327171326,-0.7579647898674011,-0.15886935591697693,0.35890111327171326,-1.2397936582565308,-1.2251689434051514,0.8962360620498657,0.20000000298023224,-0.026888581651723698,-14.999994729700653,-6.622742722089571,38675.0
0.9198,0.0056,1,1,-0.13536864519119263,0.24196739494800568,0.14400048553943634,-0.33206042647361755,0.4266248345375061,0.5000964999198914,-0.9528984427452087,0.30611148476600647,0.18608936667442322,0.9850546717643738,0.11015234142541885,-0.11299289017915726,0.06902372092008591,0.6255923192890718,0.012328884763791362,0.008337526175494745,11.967857493458455,-13.757591960782895,6.567445345601675,0.44675543904304504,-0.19669178128242493,0.18465743958950043,0.3560960292816162,-0.9528984427452087,0.30611148476600647,0.18608936667442322,0.11015234142541885,-0.11299289017915726,0.06902372092008591,0.9850546717643738,0.6255922913551331,0.012328884564340115,0.008337526582181454,-0.19669178128242493,0.18465743958950043,0.3560960292816162,-0.2750656008720398,0.18831421434879303,0.3560960292816162,-0.35304656624794006,0.17966561019420624,0.3560960292816162,-0.4287145137786865,0.15892456471920013,0.3560960292816162,-0.5002062320709229,0.12660177052021027,0.3560960292816162,-0.565761387348175,0.0834931880235672,0.3560960292816162,-0.6237658262252808,0.030660226941108704,0.3560960292816162,-0.6727911829948425,-0.03059612214565277,0.3560960292816162,-0.7116303443908691,-0.09876757860183716,0.3560960292816162,-0.7393270134925842,-0.17217552661895752,0.3560960292816162,-1.5707963705062866,-0.9423739314079285,0.8875945806503296,0.20000000298023224,-7.513444290825862,-14.999997364850326,-6.283076601323623,38675.0
0.9398,0.0054,1,1,-0.15418778359889984,0.24626439809799194,0.14521446824073792,-0.3475416600704193,0.4283282458782196,0.5000964999198914,-0.9852167367935181,0.264885812997818,0.1785253882408142,0.9843845963478088,0.11501042544841766,-0.11257480829954147,0.07130580395460129,-0.2791674924537238,0.058830705702017524,0.0680785617156421,12.509436289203371,-13.770630969372913,6.769673142178779,0.44325414299964905,-0.19335387647151947,0.18206384778022766,0.35488203167915344,-0.9852167367935181,0.264885812997818,0.1785253882408142,0.11501042544841766,-0.11257480829954147,0.07130580395460129,0.9843845963478088,-0.279167503118515,0.05883070454001427,0.06807856261730194,-0.19335387647151947,0.18206384778022766,0.35488203167915344,-0.2718035578727722,0.18327784538269043,0.35488203167915344,-0.3494773507118225,0.1722046434879303,0.35488203167915344,-0.42446255683898926,0.14911693334579468,0.35488203167915344,-0.49491292238235474,0.11458319425582886,0.35488203167915344,-0.5590936541557312,0.06945377588272095,0.35488203167915344,-0.615424394607544,0.014839887619018555,0.35488203167915344,-0.6625180840492249,-0.047913700342178345,0.35488203167915344,-0.6992151737213135,-0.11726175248622894,0.35488203167915344,-0.7246120572090149,-0.19149671494960785,0.35488203167915344,-1.2712080478668213,-0.6892217993736267,0.8651641607284546,0.20000000298023224,-11.256722145412931,-14.999998682425163,-5.878621008169403,38675.0
0.9603,0.0059,1,1,-0.1723097264766693,0.2533654272556305,0.1532372534275055,-0.36358463764190674,0.4295808672904968,0.5000964999198914,-1.0164047479629517,0.22915296256542206,0.18852142989635468,0.9849745631217957,0.11068183928728104,-0.11111146956682205,0.07229754328727722,-1.601392851926599,0.19006021961903094,0.07422324833164672,11.9925644459411,-13.58502041087756,6.962391960649792,0.4335311949253082,-0.19127491116523743,0.17621544003486633,0.34685924649238586,-1.0164047479629517,0.22915296256542206,0.18852142989635468,0.11068183928728104,-0.11111146956682205,0.07229754328727722,0.9849745631217957,-1.6013928651809692,0.19006021320819855,0.07422325015068054,-0.19127491116523743,0.17621544003486633,0.34685924649238586,-0.2697230577468872,0.17490434646606445,0.34685924649238586,-0.34700027108192444,0.16133737564086914,0.34685924649238586,-0.42120370268821716,0.13584864139556885,0.34685924649238586,-0.4905063211917877,0.09906575083732605,0.34685924649238586,-0.5532015562057495,0.05189436674118042,0.34685924649238586,-0.6077456474304199,-0.004503920674324036,0.34685924649238586,-0.652795672416687,-0.06874044239521027,0.34685924649238586,-0.6872421503067017,-0.13923346996307373,0.34685924649238586,-0.7102370262145996,-0.21424724161624908,0.34685924649238586,-0.6390314698219299,-0.6073270440101624,0.8163357973098755,0.20000000298023224,-13.128361072706465,-14.999999341212582,-5.493183371227376,38675.0
0.98,0.0045,1,1,-0.19203044474124908,0.2595402002334595,0.15715304017066956,-0.3790869116783142,0.4302992820739746,0.5000964999198914,-1.0350481271743774,0.1924104392528534,0.19301481544971466,0.9869306087493896,0.09387209266424179,-0.10902915149927139,0.07257204502820969,-2.679416492740864,0.22167956505689185,0.03312006375985038,10.025403288471036,-13.228398462882403,7.24568120063612,0.426332026720047,-0.18705646693706512,0.17075908184051514,0.3429434597492218,-1.0350481271743774,0.1924104392528534,0.19301481544971466,0.09387209266424179,-0.10902915149927139,0.07257204502820969,0.9869306087493896,-2.6794164180755615,0.22167956829071045,0.033120062202215195,-0.18705646693706512,0.17075908184051514,0.3429434597492218,-0.2654261589050293,0.16701403260231018,0.3429434597492218,-0.34224510192871094,0.15105539560317993,0.3429434597492218,-0.415621817111969,0.12327608466148376,0.3429434597492218,-0.48374950885772705,0.08436015248298645,0.3429434597492218,-0.5449506044387817,0.035265833139419556,0.3429434597492218,-0.5977181792259216,-0.02279803156852722,0.3429434597492218,-0.640752911567688,-0.08840170502662659,0.3429434597492218,-0.6729951500892639,-0.1599297970533371,0.3429434597492218,-0.6936509609222412,-0.23562106490135193,0.3429434597492218,0.06263422966003418,-0.5214564800262451,0.7649446725845337,0.20000000298023224,-4.769842030066693,-14.999999670606291,-4.926604891254682,38675.0
1.0001,0.0058,1,1,-0.21039581298828125,0.26610198616981506,0.1679503321647644,-0.39496877789497375,0.4305360019207001,0.5000964999198914,-1.0555468797683716,0.1694510132074356,0.21784184873104095,0.9895790219306946,0.06656807661056519,-0.10686562955379486,0.06985534727573395,-2.8995810853221506,-0.026725102419216374,0.049156153025113405,6.879102570883186,-12.756274409498069,7.305844658197057,0.41403719782829285,-0.1845729649066925,0.164434015750885,0.33214616775512695,-1.0555468797683716,0.1694510132074356,0.21784184873104095,0.06656807661056519,-0.10686562955379486,0.06985534727573395,0.9895790219306946,-2.89958119392395,-0.026725102216005325,0.049156151711940765,-0.1845729649066925,0.164434015750885,0.33214616775512695,-0.26278412342071533,0.15820160508155823,0.33214616775512695,-0.33905744552612305,0.1398109793663025,0.33214616775512695,-0.4115147590637207,0.10971501469612122,0.33214616775512695,-0.47837191820144653,0.06865477561950684,0.33214616775512695,-0.5379827618598938,0.017641276121139526,0.33214616775512695,-0.588879406452179,-0.04206936061382294,0.33214616775512695,-0.6298086643218994,-0.1090068519115448,0.33214616775512695,-0.6597626805305481,-0.18152296543121338,0.33214616775512695,-0.6780038475990295,-0.2578321397304535,0.33214616775512695,0.51514732837677,-0.4232163429260254,0.7539123296737671,0.20000000298023224,5.115078984966653,-14.999999835303147,-4.80627797613286,38675.0
1.0207,0.0049,1,1,-0.23169837892055511,0.26945093274116516,0.172806054353714,-0.4105691909790039,0.4302772879600525,0.5000964999198914,-1.0905197858810425,0.14720618724822998,0.2230098694562912,0.9911483526229858,0.03790343925356865,-0.10805387794971466,0.06716150790452957,-2.2735107951964366,-0.04657242071454578,0.05335225460577748,3.562313445592109,-12.667108650927748,7.35748502278097,0.40617597103118896,-0.1788708120584488,0.16082635521888733,0.32729044556617737,-1.0905197858810425,0.14720618724822998,0.2230098694562912,0.03790343925356865,-0.10805387794971466,0.06716150790452957,0.9911483526229858,-2.273510694503784,-0.04657242074608803,0.05335225537419319,-0.1788708120584488,0.16082635521888733,0.32729044556617737,-0.25684940814971924,0.15215668082237244,0.32729044556617737,-0.3325117826461792,0.13139519095420837,0.32729044556617737,-0.4039947986602783,0.09905311465263367,0.32729044556617737,-0.46953827142715454,0.05592682957649231,0.32729044556617737,-0.5275284051895142,0.0030782222747802734,0.32729044556617737,-0.5765372514724731,-0.05819137394428253,0.32729044556617737,-0.6153579950332642,-0.1263733208179474,0.32729044556617737,-0.643034815788269,-0.19978873431682587,0.32729044556617737,-0.658886194229126,-0.27662989497184753,0.32729044556617737,0.650328516960144,0.005919456481933594,0.8159517049789429,0.20000000298023224,10.057539492483325,-7.330419980938497,-4.702997246965014,38675.0
1.0403,0.0051,1,1,-0.2507643699645996,0.27623873949050903,0.17273303866386414,-0.4263029396533966,0.42952245473861694,0.5000964999198914,-1.1004711389541626,0.1536564975976944,0.200087308883667,0.9918705821037292,0.01574796810746193,-0.10832758992910385,0.06486784666776657,-0.9349447786175398,0.11629441913887578,0.03355648720289251,1.0087555098397332,-12.529190103328148,7.372818796113249,0.401841402053833,-0.175538569688797,0.1532837152481079,0.3273634612560272,-1.1004711389541626,0.1536564975976944,0.200087308883667,0.01574796810746193,-0.10832758992910385,0.06486784666776657,0.9918705821037292,-0.934944748878479,0.11629442125558853,0.033556487411260605,-0.175538569688797,0.1532837152481079,0.3273634612560272,-0.25320541858673096,0.14216205477714539,0.3273634612560272,-0.32817620038986206,0.1190275251865387,0.3273634612560272,-0.39860498905181885,0.08444979786872864,0.3273634612560272,-0.46275752782821655,0.03928029537200928,0.3273634612560272,-0.519054114818573,-0.015368759632110596,0.3273634612560272,-0.5661086440086365,-0.07815173268318176,0.3273634612560272,-0.6027624607086182,-0.1475226879119873,0.3273634612560272,-0.6281129717826843,-0.22177347540855408,0.3273634612560272,-0.6415359973907471,-0.29907581210136414,0.3273634612560272,0.6575287580490112,0.2570333480834961,0.9124106168746948,0.20000000298023224,12.528769746241663,3.6982530291814184,-4.672329700300471,38675.0
1.0601,0.0056,1,1,-0.2713469862937927,0.28173887729644775,0.18257562816143036,-0.4417875111103058,0.4282931387424469,0.5000964999198914,-1.136250615119934,0.1559794396162033,0.22555987536907196,0.9921274781227112,0.0073588090017437935,-0.10735602676868439,0.06404288858175278,0.6430114567680348,0.33998187449963285,0.09220375520126323,0.0499130895601845,-12.35477139933407,7.381340845153515,0.3890342116355896,-0.17044052481651306,0.14655426144599915,0.3175208568572998,-1.136250615119934,0.1559794396162033,0.22555987536907196,0.0073588090017437935,-0.10735602676868439,0.06404288858175278,0.9921274781227112,0.6430114507675171,0.33998188376426697,0.09220375865697861,-0.17044052481651306,0.14655426144599915,0.3175208568572998,-0.24772441387176514,0.1330253779888153,0.3175208568572998,-0.32194042205810547,0.10757321119308472,0.3175208568572998,-0.39126110076904297,0.07082447409629822,0.3175208568572998,-0.45397961139678955,0.023683995008468628,0.3175208568572998,-0.5085514783859253,-0.032687410712242126,0.3175208568572998,-0.5536330938339233,-0.09690172970294952,0.3175208568572998,-0.588114321231842,-0.167377769947052,0.3175208568572998,-0.6111462116241455,-0.24238020181655884,0.3175208568572998,-0.6221615076065063,-0.32006219029426575,0.3175208568572998,0.2353426218032837,0.4273245334625244,0.9180794954299927,0.20000000298023224,13.006454357556663,9.349126514590708,-4.655285602219935,38675.0
1.0801,0.005,1,1,-0.29356566071510315,0.2858209013938904,0.18505412340164185,-0.4574809670448303,0.42655113339424133,0.5000964999198914,-1.1674683094024658,0.16119641065597534,0.21789251267910004,0.9925298690795898,0.013447183184325695,-0.10240815579891205,0.06491691619157791,1.5621931180514501,1.1878570647010402,0.13549948908960277,0.7843018641646317,-11.831384378679138,7.4029750920692345,0.38200122117996216,-0.16391530632972717,0.14073023200035095,0.3150423765182495,-1.1674683094024658,0.16119641065597534,0.21789251267910004,0.013447183184325695,-0.10240815579891205,0.06491691619157791,0.9925298690795898,1.5621931552886963,1.1878570318222046,0.1354994922876358,-0.16391530632972717,0.14073023200035095,0.3150423765182495,-0.24073347449302673,0.12476781010627747,0.3150423765182495,-0.31410881876945496,0.09698489308357239,0.3150423765182495,-0.3822345435619354,0.05806562304496765,0.3150423765182495,-0.4434332549571991,0.0089682936668396,0.3150423765182495,-0.49619802832603455,-0.0490981787443161,0.3150423765182495,-0.5392295122146606,-0.1147039532661438,0.3150423765182495,-0.5714682340621948,-0.18623363971710205,0.3150423765182495,-0.5921202898025513,-0.26192590594291687,0.3150423765182495,-0.6006772518157959,-0.33991700410842896,0.3150423765182495,0.07019686698913574,0.4300328493118286,0.8751746416091919,0.20000000298023224,8.514219285537676,12.174563257295354,-4.612017108388499,38675.0
1.1002,0.0053,1,1,-0.3131772577762604,0.29372429847717285,0.19644635915756226,-0.4731118381023407,0.4243144392967224,0.5000964999198914,-1.1859921216964722,0.1751045435667038,0.26641330122947693,0.9937127828598022,0.025931891053915024,-0.08610958606004715,0.06667432934045792,1.6556470359698021,2.1696941180024227,0.14848574499985845,2.331431779474868,-10.055054150243613,7.4720012602072705,0.3672005534172058,-0.15993458032608032,0.13059014081954956,0.3036501407623291,-1.1859921216964722,0.1751045435667038,0.26641330122947693,0.025931891053915024,-0.08610958606004715,0.06667432934045792,0.9937127828598022,1.6556470394134521,2.169694185256958,0.14848574995994568,-0.15993458032608032,0.13059014081954956,0.3036501407623291,-0.236210435628891,0.11221003532409668,0.3036501407623291,-0.30867186188697815,0.08212408423423767,0.3036501407623291,-0.3755347430706024,0.04107305407524109,0.3036501407623291,-0.4351526200771332,-0.009932249784469604,0.3036501407623291,-0.48605749011039734,-0.06963585317134857,0.3036501407623291,-0.5269960165023804,-0.13656769692897797,0.3036501407623291,-0.5569599866867065,-0.20907968282699585,0.3036501407623291,-0.5752116441726685,-0.285386323928833,0.3036501407623291,-0.5813016891479492,-0.363608717918396,0.3036501407623291,0.3573209047317505,0.006164908409118652,0.848016619682312,0.20000000298023224,11.757109642768839,6.263893245111282,-4.473964772112398,38675.0
1.1198,0.0058,1,1,-0.336271733045578,0.2981652021408081,0.198974609375,-0.48837223649024963,0.42164120078086853,0.5000964999198914,-1.209978461265564,0.17305277287960052,0.24818949401378632,0.9948188662528992,0.03921128436923027,-0.06229976937174797,0.07010401040315628,1.081952935265595,2.920971062565449,0.09233058824817825,4.006475903960082,-7.4379098034182265,7.801298046951344,0.35924264788627625,-0.15210050344467163,0.12347599864006042,0.30112189054489136,-1.209978461265564,0.17305277287960052,0.24818949401378632,0.03921128436923027,-0.06229976937174797,0.07010401040315628,0.9948188662528992,1.0819529294967651,2.920971155166626,0.09233058989048004,-0.15210050344467163,0.12347599864006042,0.30112189054489136,-0.22777029871940613,0.10274156928062439,0.30112189054489136,-0.2992648184299469,0.07042506337165833,0.30112189054489136,-0.3648237884044647,0.027322202920913696,0.30112189054489136,-0.42283275723457336,-0.025505661964416504,0.30112189054489136,-0.4718635380268097,-0.08675773441791534,0.30112189054489136,-0.5107086896896362,-0.15492580831050873,0.30112189054489136,-0.5384117364883423,-0.2283313274383545,0.30112189054489136,-0.5542905330657959,-0.3051668107509613,0.30112189054489136,-0.5579541921615601,-0.3835403323173523,0.30112189054489136,0.8456186056137085,-0.18002104759216309,0.8554362058639526,0.20000000298023224,13.37855482138442,-2.025276502721697,-3.815371198624274,38675.0
1.1403,0.0052,1,1,-0.3572736084461212,0.30638760328292847,0.2136913537979126,-0.504012405872345,0.41839122772216797,0.5000964999198914,-1.2299184799194336,0.17909541726112366,0.32618680596351624,0.9957967400550842,0.04605551064014435,-0.03151976689696312,0.0726105198264122,0.6456073730405896,2.6797355394394553,0.027628754588972293,5.011605871026803,-3.983132324362673,8.166513800415716,0.3407418131828308,-0.14673879742622375,0.1120036244392395,0.28640514612197876,-1.2299184799194336,0.17909541726112366,0.32618680596351624,0.04605551064014435,-0.03151976689696312,0.0726105198264122,0.9957967400550842,0.6456073522567749,2.6797354221343994,0.027628755196928978,-0.14673879742622375,0.1120036244392395,0.28640514612197876,-0.2217075526714325,0.08886253833770752,0.28640514612197876,-0.29213330149650574,0.054278671741485596,0.28640514612197876,-0.35628190636634827,0.009103566408157349,0.28640514612197876,-0.4125737249851227,-0.045550405979156494,0.28640514612197876,-0.4596227705478668,-0.10833747684955597,0.28640514612197876,-0.4962705075740814,-0.1777116358280182,0.28640514612197876,-0.5216145515441895,-0.25196465849876404,0.28640514612197876,-0.5350308418273926,-0.3292681574821472,0.28640514612197876,-0.5361889600753784,-0.4077187180519104,0.28640514612197876,1.4052594900131226,-0.24422180652618408,0.9082571268081665,0.20000000298023224,14.18927741069221,-8.009077640866295,-3.084939691695505,38675.0
1.1599,0.0051,1,1,-0.38302019238471985,0.3070233464241028,0.21018663048744202,-0.5190378427505493,0.4147728979587555,0.5000964999198914,-1.2325472831726074,0.15415440499782562,0.2674104571342468,0.9958471059799194,0.05219888687133789,-0.0071787284687161446,0.07423137128353119,0.7469533025332824,1.50620801245775,0.05724391526195345,5.907541708480183,-1.263326583071487,8.460788071090134,0.3378734886646271,-0.13601765036582947,0.10774955153465271,0.28990986943244934,-1.2325472831726074,0.15415440499782562,0.2674104571342468,0.05219888687133789,-0.0071787284687161446,0.07423137128353119,0.9958471059799194,0.7469533085823059,1.506208062171936,0.057243913412094116,-0.13601765036582947,0.10774955153465271,0.28990986943244934,-0.21023544669151306,0.0823025107383728,0.28990986943244934,-0.2795586884021759,0.04555857181549072,0.28990986943244934,-0.34228041768074036,-0.0015775561332702637,0.28990986943244934,-0.3968562185764313,-0.057945191860198975,0.28990986943244934,-0.4419423043727875,-0.12215638160705566,0.28990986943244934,-0.47642841935157776,-0.19263003766536713,0.28990986943244934,-0.4994654357433319,-0.2676308751106262,0.28990986943244934,-0.5104861259460449,-0.34531211853027344,0.28990986943244934,-0.5092191696166992,-0.42376095056533813,0.28990986943244934,1.1989160776138306,0.5108484029769897,0.9841424226760864,0.20000000298023224,14.594638705346105,3.4954611795668526,-2.496391150346704,38675.0
1.1801,0.0051,1,1,-0.40926775336265564,0.31332117319107056,0.22376768290996552,-0.5344467163085938,0.4105457067489624,0.5000964999198914,-1.2226766347885132,0.14300204813480377,0.32319191098213196,0.9954885244369507,0.05726268142461777,0.008249538019299507,0.07519028335809708,0.8911390410580717,-0.1389220339197613,0.09294350645068157,6.618204894109862,0.44768205603127964,8.664684501137339,0.3185592591762543,-0.1251789629459381,0.09722453355789185,0.27632880210876465,-1.2226766347885132,0.14300204813480377,0.32319191098213196,0.05726268142461777,0.008249538019299507,0.07519028335809708,0.9954885244369507,0.891139030456543,-0.13892203569412231,0.09294350445270538,-0.1251789629459381,0.09722453355789185,0.27632880210876465,-0.19854572415351868,0.06941908597946167,0.27632880210876465,-0.26665952801704407,0.030478864908218384,0.27632880210876465,-0.32784315943717957,-0.01863729953765869,0.27632880210876465,-0.3805899918079376,-0.0767199695110321,0.27632880210876465,-0.423601359128952,-0.14233897626399994,0.27632880210876465,-0.4558180868625641,-0.2138785719871521,0.27632880210876465,-0.47644689679145813,-0.2895771861076355,0.27632880210876465,-0.48497989773750305,-0.3675708770751953,0.27632880210876465,-0.4812069237232208,-0.44593921303749084,0.27632880210876465,1.1201988458633423,1.1259709596633911,1.0918701887130737,0.20000000298023224,14.797319352673053,9.247730589783426,-2.0885982902522557,38675.0
1.1999,0.0052,1,1,-0.4337742328643799,0.3160989284515381,0.2302938997745514,-0.5491778254508972,0.4060026705265045,0.5000964999198914,-1.2195004224777222,0.12146346271038055,0.3363485336303711,0.9949485063552856,0.0653543621301651,0.008063015528023243,0.07575785368680954,0.933306668231032,-0.382609962225068,0.11309002049150838,7.543137308020815,0.3519334086625793,8.73166522280988,0.30691060423851013,-0.11540359258651733,0.08990374207496643,0.26980260014533997,-1.2195004224777222,0.12146346271038055,0.3363485336303711,0.0653543621301651,0.008063015528023243,0.07575785368680954,0.9949485063552856,0.9333066940307617,-0.3826099634170532,0.11309002339839935,-0.11540359258651733,0.08990374207496643,0.26980260014533997,-0.1878783106803894,0.05984976887702942,0.26980260014533997,-0.2547593116760254,0.018828243017196655,0.26980260014533997,-0.3143996596336365,-0.032150715589523315,0.26980260014533997,-0.36533093452453613,-0.09183184802532196,0.26980260014533997,-0.4062989354133606,-0.15874561667442322,0.26980260014533997,-0.43629491329193115,-0.23124437034130096,0.26980260014533997,-0.45458030700683594,-0.30754294991493225,0.26980260014533997,-0.46070486307144165,-0.38576263189315796,0.26980260014533997,-0.45451778173446655,-0.4639773964881897,0.26980260014533997,1.1295136213302612,1.474694848060608,1.1104177236557007,0.20000000298023224,14.898659676336527,12.123865294891713,-1.9546368469072015,38675.0
1.2201,0.006,1,1,-0.4585990607738495,0.3252486288547516,0.2421078234910965,-0.5642790198326111,0.4008212685585022,0.5000964999198914,-1.2087568044662476,0.13057155907154083,0.38019460439682007,0.9945284128189087,0.07127537578344345,0.007609082385897636,0.07598105072975159,0.8178716178864113,0.6319081389722492,0.08119472163044482,8.217335275374706,0.24658697785080105,8.755410719654618,0.28885576128959656,-0.1056799590587616,0.07557263970375061,0.25798869132995605,-1.2087568044662476,0.13057155907154083,0.38019460439682007,0.07127537578344345,0.007609082385897636,0.07598105072975159,0.9945284128189087,0.817871630191803,0.631908118724823,0.08119472116231918,-0.1056799590587616,0.07557263970375061,0.25798869132995605,-0.1771582067012787,0.04322010278701782,0.25798869132995605,-0.2426954209804535,8.422136306762695e-05,0.25798869132995605,-0.3006778061389923,-0.0527728796005249,0.25798869132995605,-0.3496776521205902,-0.11404964327812195,0.25798869132995605,-0.38848844170570374,-0.18223728239536285,0.25798869132995605,-0.41615453362464905,-0.25565674901008606,0.25798869132995605,-0.43199464678764343,-0.3325002193450928,0.25798869132995605,-0.4356187880039215,-0.4108755588531494,0.25798869132995605,-0.42693766951560974,-0.48885291814804077,0.25798869132995605,1.5707963705062866,1.396565556526184,1.1238821744918823,0.20000000298023224,14.949329838168264,13.561932647445857,-1.9071458532177024,38675.0
1.2405,0.006,1,1,-0.4822888970375061,0.32761847972869873,0.25029394030570984,-0.5789750218391418,0.3952525854110718,0.5000964999198914,-1.1904903650283813,0.10081616044044495,0.39359191060066223,0.993766725063324,0.07880047708749771,0.01529243215918541,0.07734625041484833,0.713414383871206,1.4704549416653816,0.054212963302955865,9.149470419627434,1.0430916228919607,8.984324822757074,0.27626779675483704,-0.09668612480163574,0.06763410568237305,0.24980255961418152,-1.1904903650283813,0.10081616044044495,0.39359191060066223,0.07880047708749771,0.01529243215918541,0.07734625041484833,0.993766725063324,0.7134143710136414,1.4704549312591553,0.054212965071201324,-0.09668612480163574,0.06763410568237305,0.24980255961418152,-0.1671123504638672,0.03305116295814514,0.24980255961418152,-0.2312614917755127,-0.01212310791015625,0.24980255961418152,-0.2875540852546692,-0.0667763352394104,0.24980255961418152,-0.3346039652824402,-0.12956278026103973,0.24980255961418152,-0.3712525963783264,-0.19893646240234375,0.24980255961418152,-0.39659762382507324,-0.27318912744522095,0.24980255961418152,-0.41001492738723755,-0.3504924774169922,0.24980255961418152,-0.41117411851882935,-0.428943008184433,0.24980255961418152,-0.4000466465950012,-0.5066090226173401,0.24980255961418152,1.5707963705062866,1.129722237586975,1.101504921913147,0.20000000298023224,14.974664919084132,14.280966323722929,-1.4493176470127918,38675.0
1.2609,0.0063,1,1,-0.49701350927352905,0.3241155445575714,0.2466650903224945,-0.5935127139091492,0.3892143964767456,0.5000964999198914,-1.1346205472946167,0.05475524440407753,0.3205944001674652,0.9925757050514221,0.08640701323747635,0.03249461576342583,0.07917973399162292,0.6427346211727211,1.787542618959012,0.06071799642039421,10.189563365432107,2.91321930514117,9.381648192060291,0.2788860499858856,-0.09649920463562012,0.0650988519191742,0.25343140959739685,-1.1346205472946167,0.05475524440407753,0.3205944001674652,0.08640701323747635,0.03249461576342583,0.07917973399162292,0.9925757050514221,0.6427346467971802,1.7875425815582275,0.06071799620985985,-0.09649920463562012,0.0650988519191742,0.25343140959739685,-0.16580188274383545,0.02831605076789856,0.25343140959739685,-0.22849714756011963,-0.01885521411895752,0.25343140959739685,-0.2830413579940796,-0.075253427028656,0.25343140959739685,-0.32809144258499146,-0.13948988914489746,0.25343140959739685,-0.36253803968429565,-0.20998287200927734,0.25343140959739685,-0.38553303480148315,-0.2849965989589691,0.25343140959739685,-0.39651018381118774,-0.3626839816570282,0.25343140959739685,-0.3951992392539978,-0.441132128238678,0.25343140959739685,-0.38163238763809204,-0.5184093713760376,0.25343140959739685,1.5707963705062866,0.5054711103439331,1.0797568559646606,0.20000000298023224,14.987332459542067,14.640483161861464,-0.6546709084063678,38675.0
1.2796,0.0055,1,1,-0.5169905424118042,0.32659679651260376,0.25812140107154846,-0.60746169090271,0.382906049489975,0.5000964999198914,-1.113991141319275,0.02858135662972927,0.3452054560184479,0.9912195801734924,0.09090442955493927,0.051448460668325424,0.08106284588575363,0.5929695280419827,1.6407900591965772,0.040883068065917474,10.910507983937855,5.005737507003343,9.82893009377181,0.2644006609916687,-0.09047114849090576,0.056309252977371216,0.2419750988483429,-1.113991141319275,0.02858135662972927,0.3452054560184479,0.09090442955493927,0.051448460668325424,0.08106284588575363,0.9912195801734924,0.592969536781311,1.6407901048660278,0.04088306799530983,-0.09047114849090576,0.056309252977371216,0.2419750988483429,-0.15861517190933228,0.017422020435333252,0.2419750988483429,-0.2198370099067688,-0.031646519899368286,0.2419750988483429,-0.2726290225982666,-0.08968813717365265,0.2419750988483429,-0.31569141149520874,-0.1552736759185791,0.2419750988483429,-0.34796375036239624,-0.22678817808628082,0.2419750988483429,-0.36865144968032837,-0.30247071385383606,0.2419750988483429,-0.37724512815475464,-0.3804577589035034,0.2419750988483429,-0.37353307008743286,-0.45882898569107056,0.2419750988483429,-0.35760682821273804,-0.5356546640396118,0.2419750988483429,1.5707963705062866,0.37056779861450195,1.1172107458114624,0.20000000298023224,14.993666229771033,14.820241580930732,0.23989289501665273,38675.0
1.3002,0.0052,1,1,-0.5402708053588867,0.3259570598602295,0.25970932841300964,-0.6218692660331726,0.37583810091018677,0.5000964999198914,-1.0772390365600586,-0.00777897285297513,0.32640963792800903,0.9896537065505981,0.09550534188747406,0.06837490946054459,0.08238378167152405,0.35531728816269065,1.459095893825921,0.000272009005949456,11.639225144007597,6.868947762790751,10.218148358767634,0.2587130069732666,-0.08159846067428589,0.049881041049957275,0.2403871715068817,-1.0772390365600586,-0.00777897285297513,0.32640963792800903,0.09550534188747406,0.06837490946054459,0.08238378167152405,0.9896537065505981,0.35531729459762573,1.45909583568573,0.00027200899785384536,-0.08159846067428589,0.049881041049957275,0.2403871715068817,-0.14845949411392212,0.008826971054077148,0.2403871715068817,-0.20807504653930664,-0.04218101501464844,0.2403871715068817,-0.2589772343635559,-0.10188692808151245,0.2403871715068817,-0.299912691116333,-0.16882061958312988,0.2403871715068817,-0.32987338304519653,-0.2413339614868164,0.2403871715068817,-0.34812164306640625,-0.3176414370536804,0.2403871715068817,-0.35420817136764526,-0.3958640992641449,0.2403871715068817,-0.3479830026626587,-0.4740758538246155,0.2403871715068817,-0.32959944009780884,-0.5503508448600769,0.2403871715068817,1.5707963705062866,0.36411356925964355,1.1562589406967163,0.20000000298023224,14.996833114885517,14.910120790465367,1.0183294250083326,38675.0
1.3201,0.0055,1,1,-0.5630526542663574,0.32884085178375244,0.27222901582717896,-0.6355664134025574,0.3685738444328308,0.5000964999198914,-1.0429545640945435,-0.03351855278015137,0.3682703375816345,0.9883217215538025,0.09714237600564957,0.08340956270694733,0.08261009305715561,0.30418709194669125,1.1171796988475364,-0.0017342590843123316,12.011870002415183,8.558612825499148,10.458148736988914,0.2424057424068451,-0.07251375913619995,0.03973299264907837,0.2278674840927124,-1.0429545640945435,-0.03351855278015137,0.3682703375816345,0.09714237600564957,0.08340956270694733,0.08261009305715561,0.9883217215538025,0.3041870892047882,1.1171797513961792,-0.0017342590726912022,-0.07251375913619995,0.03973299264907837,0.2278674840927124,-0.138069748878479,-0.003374338150024414,0.2278674840927124,-0.1960752010345459,-0.05620616674423218,0.2278674840927124,-0.24510174989700317,-0.11746159195899963,0.2278674840927124,-0.28394222259521484,-0.18563230335712433,0.2278674840927124,-0.31164032220840454,-0.2590397000312805,0.2278674840927124,-0.3275138735771179,-0.3358762860298157,0.2278674840927124,-0.3311721682548523,-0.41425004601478577,0.2278674840927124,-0.3225250840187073,-0.49223119020462036,0.2278674840927124,-0.3017854690551758,-0.5678995251655579,0.2278674840927124,1.5707963705062866,0.3330955505371094,1.2179147005081177,0.20000000298023224,14.99841655744276,14.955060395232683,1.498330181450869,38675.0
1.3405,0.0055,1,1,-0.5845663547515869,0.32779574394226074,0.28005051612854004,-0.6493232846260071,0.3607158362865448,0.5000964999198914,-1.0024590492248535,-0.07144535332918167,0.3759852647781372,0.9869524240493774,0.0993310809135437,0.09540347009897232,0.0833934023976326,0.3115542943387183,0.8203659345633795,0.005760845520180677,12.426065138893854,9.889598399211138,10.738830944335989,0.23172706365585327,-0.06475692987442017,0.03292009234428406,0.22004598379135132,-1.0024590492248535,-0.07144535332918167,0.3759852647781372,0.0993310809135437,0.09540347009897232,0.0833934023976326,0.9869524240493774,0.31155428290367126,0.8203659057617188,0.0057608457282185555,-0.06475692987442017,0.03292009234428406,0.22004598379135132,-0.12891429662704468,-0.012242525815963745,0.22004598379135132,-0.1852167844772339,-0.0668855607509613,0.22004598379135132,-0.2322779893875122,-0.12966348230838776,0.22004598379135132,-0.2689392566680908,-0.19903050363063812,0.22004598379135132,-0.2942976951599121,-0.2732785940170288,0.22004598379135132,-0.30772900581359863,-0.35057950019836426,0.22004598379135132,-0.30890244245529175,-0.42902982234954834,0.22004598379135132,-0.2977890372276306,-0.5066978335380554,0.22004598379135132,-0.2746625542640686,-0.5816711187362671,0.22004598379135132,1.5707963705062866,0.29029178619384766,1.2626532316207886,0.20000000298023224,14.99920827872138,14.977530197616343,2.059694596145038,38675.0
1.3602,0.005,1,1,-0.6052502989768982,0.3293900191783905,0.3047194182872772,-0.6626023650169373,0.35256701707839966,0.5000964999198914,-0.9463121891021729,-0.10611801594495773,0.5033733248710632,0.9858128428459167,0.10010673105716705,0.10568994283676147,0.08354220539331436,0.26994142026557827,0.6891512552858756,-0.004892457348327691,12.655803165220233,11.049368227699848,10.916911311718241,0.204935684800148,-0.05735206604003906,0.023176997900009155,0.19537708163261414,-0.9463121891021729,-0.10611801594495773,0.5033733248710632,0.10010673105716705,0.10568994283676147,0.08354220539331436,0.9858128428459167,0.26994141936302185,0.6891512274742126,-0.004892457276582718,-0.05735206604003906,0.023176997900009155,0.19537708163261414,-0.1200711727142334,-0.02396261692047119,0.19537708163261414,-0.17464381456375122,-0.08033329248428345,0.19537708163261414,-0.2197263240814209,-0.1445469856262207,0.19537708163261414,-0.254208505153656,-0.21502256393432617,0.19537708163261414,-0.27724140882492065,-0.29002466797828674,0.19537708163261414,-0.28825777769088745,-0.3677065372467041,0.19537708163261414,-0.28698641061782837,-0.446155309677124,0.19537708163261414,-0.2734586000442505,-0.5234394073486328,0.19537708163261414,-0.2480074167251587,-0.5976557731628418,0.19537708163261414,1.5707963705062866,-0.3806670904159546,1.3652046918869019,0.20000000298023224,14.99960413936069,-0.011234901191828683,2.4158553309095137,38675.0
1.3802,0.0051,1,1,-0.6237444877624512,0.32708224654197693,0.31490182876586914,-0.6756265163421631,0.34400469064712524,0.5000964999198914,-0.8983173370361328,-0.1416933834552765,0.5097192525863647,0.9847540259361267,0.10219794511795044,0.1130061224102974,0.08392105996608734,0.2231078682837718,0.5619715313759508,-0.03281785323277523,13.00557838069731,11.8536971257447,11.097894650295848,0.19306781888008118,-0.051882028579711914,0.016922444105148315,0.18519467115402222,-0.8983173370361328,-0.1416933834552765,0.5097192525863647,0.10219794511795044,0.1130061224102974,0.08392105996608734,0.9847540259361267,0.22310787439346313,0.5619715452194214,-0.03281785175204277,-0.051882028579711914,0.016922444105148315,0.18519467115402222,-0.11310136318206787,-0.032149165868759155,0.18519467115402222,-0.16589045524597168,-0.09019345045089722,0.18519467115402222,-0.20894956588745117,-0.15578114986419678,0.18519467115402222,-0.24121832847595215,-0.22729727625846863,0.18519467115402222,-0.26190221309661865,-0.30298087000846863,0.18519467115402222,-0.27049195766448975,-0.3809683322906494,0.18519467115402222,-0.2667759656906128,-0.4593393802642822,0.18519467115402222,-0.25084584951400757,-0.5361642837524414,0.18519467115402222,-0.22309374809265137,-0.6095512509346008,0.18519467115402222,1.5707963705062866,-0.7120455503463745,1.4266444444656372,0.20000000298023224,14.999802069680346,-7.505617450595914,2.777822008064735,38675.0
1.4006,0.0054,1,1,-0.6415333151817322,0.3252926766872406,0.34391042590141296,-0.6884691715240479,0.3349739611148834,0.5000964999198914,-0.8393482565879822,-0.18401674926280975,0.6655541062355042,0.9840521216392517,0.10319095104932785,0.11827772855758667,0.0836745873093605,0.23735451511417793,-0.1777098267085453,-0.061664937441431526,13.193940521687153,12.44568305938985,11.16535310616794,0.1633731573820114,-0.046935856342315674,0.009681284427642822,0.1561860740184784,-0.8393482565879822,-0.18401674926280975,0.6655541062355042,0.10319095104932785,0.11827772855758667,0.0836745873093605,0.9840521216392517,0.23735451698303223,-0.17770983278751373,-0.06166493892669678,-0.046935856342315674,0.009681284427642822,0.1561860740184784,-0.10658437013626099,-0.04128819704055786,0.1561860740184784,-0.15752512216567993,-0.10096122324466705,0.1561860740184784,-0.19850373268127441,-0.1678684651851654,0.1561860740184784,-0.2285112738609314,-0.24036243557929993,0.1561860740184784,-0.24680882692337036,-0.3166581094264984,0.1561860740184784,-0.25294584035873413,-0.3948768377304077,0.1561860740184784,-0.24677115678787231,-0.47309255599975586,0.1561860740184784,-0.2284368872642517,-0.5493794083595276,0.1561860740184784,-0.19839441776275635,-0.6218589544296265,0.1561860740184784,1.5707963705062866,-1.3758310079574585,1.5707963705062866,0.20000000298023224,14.999901034840173,-11.252808725297957,2.9127389198089424,38675.0
1.4199,0.0048,1,1,-0.6569331288337708,0.3291584849357605,0.3243321478366852,-0.7010430693626404,0.3255281150341034,0.5000964999198914,-0.7729811668395996,-0.1585872620344162,0.4221968650817871,0.9844744205474854,0.10380249470472336,0.11558353155851364,0.08169164508581161,0.26296014320501726,-1.6001583436032927,-0.012775183749110106,13.202267276044896,12.15859846704313,10.89932466231309,0.1812511384487152,-0.04410994052886963,-0.0036303699016571045,0.17576435208320618,-0.7729811668395996,-0.1585872620344162,0.4221968650817871,0.10380249470472336,0.11558353155851364,0.08169164508581161,0.9844744205474854,0.26296013593673706,-1.6001583337783813,-0.012775183655321598,-0.04410994052886963,-0.0036303699016571045,0.17576435208320618,-0.10212600231170654,-0.05645054578781128,0.17576435208320618,-0.15116482973098755,-0.1176961213350296,0.17576435208320618,-0.19001901149749756,-0.18585902452468872,0.17576435208320618,-0.21773183345794678,-0.2592608630657196,0.17576435208320618,-0.23362088203430176,-0.3360942304134369,0.17576435208320618,-0.23729491233825684,-0.4144672751426697,0.17576435208320618,-0.22866344451904297,-0.49245011806488037,0.17576435208320618,-0.20793908834457397,-0.5681226253509521,0.17576435208320618,-0.1756320595741272,-0.6396214962005615,0.17576435208320618,1.5707963705062866,-0.4419991970062256,1.5707963705062866,0.20000000298023224,14.999950517420086,-13.126404362648978,2.3806820320992306,38675.0
1.4463,0.0108,1,1,-0.6741155385971069,0.3275792598724365,0.3265140652656555,-0.7169079780578613,0.31268760561943054,0.5000964999198914,-0.7287644743919373,-0.18551722168922424,0.39467769861221313,0.9866028428077698,0.10504993051290512,0.09839403629302979,0.07678557187318802,0.1971389683754888,-2.610549277480287,0.05902416354926576,13.062018140225305,10.25439534280843,10.077568680999262,0.17939847707748413,-0.042792439460754395,-0.014891654253005981,0.17358243465423584,-0.7287644743919373,-0.18551722168922424,0.39467769861221313,0.10504993051290512,0.09839403629302979,0.07678557187318802,0.9866028428077698,0.1971389651298523,-2.610549211502075,0.05902416259050369,-0.042792439460754395,-0.014891654253005981,0.17358243465423584,-0.09860444068908691,-0.07003554701805115,0.17358243465423584,-0.14510291814804077,-0.13323146104812622,0.17358243465423584,-0.1811428666114807,-0.20292329788208008,0.17358243465423584,-0.2058369517326355,-0.27739498019218445,0.17358243465423584,-0.21857702732086182,-0.3548128008842468,0.17358243465423584,-0.21904945373535156,-0.43327048420906067,0.17358243465423584,-0.20724260807037354,-0.510836124420166,0.17358243465423584,-0.18344712257385254,-0.5855997800827026,0.17358243465423584,-0.14824903011322021,-0.655720591545105,0.17358243465423584,1.5707963705062866,0.10760772228240967,1.5707963705062866,0.20000000298023224,14.999975258710043,-3.480468016425519,0.7371700694715688,38675.0
1.4603,0.0059,1,1,-0.6992684602737427,0.3290368914604187,0.3433668613433838,-0.7254578471183777,0.30530697107315063,0.5000964999198914,-0.6987537145614624,-0.19957183301448822,0.4407223165035248,0.9889797568321228,0.10860147327184677,0.07134877890348434,0.07093693315982819,0.1555958358333952,-3.0444083127745127,0.17554297897711593,13.104671454504036,7.222179967505679,9.035917768669012,0.16066478192806244,-0.02618938684463501,-0.023729920387268066,0.15672963857650757,-0.6987537145614624,-0.19957183301448822,0.4407223165035248,0.10860147327184677,0.07134877890348434,0.07093693315982819,0.9889797568321228,0.1555958390235901,-3.0444083213806152,0.17554298043251038,-0.02618938684463501,-0.023729920387268066,0.15672963857650757,-0.08074158430099487,-0.08012045919895172,0.15672963857650757,-0.12580066919326782,-0.1443505585193634,0.15672963857650757,-0.1602572202682495,-0.2148386836051941,0.15672963857650757,-0.18326282501220703,-0.2898491621017456,0.15672963857650757,-0.19425088167190552,-0.3675350248813629,0.15672963857650757,-0.19295096397399902,-0.445983350276947,0.15672963857650757,-0.17939502000808716,-0.5232625007629395,0.15672963857650757,-0.15391689538955688,-0.5974695682525635,0.15672963857650757,-0.11714386940002441,-0.6667773723602295,0.15672963857650757,1.5707963705062866,1.2858010530471802,1.5707963705062866,0.20000000298023224,14.999987629355022,5.759765991787241,-1.3461317551889307,38675.0
1.4809,0.0056,1,1,-0.7072176933288574,0.3166738450527191,0.344330370426178,-0.7369422316551208,0.29484251141548157,0.5000964999198914,-0.6542105078697205,-0.28472527861595154,0.4165566861629486,0.9901700019836426,0.11503001302480698,0.04461746662855148,0.06586897373199463,0.09300113059876816,-2.295262962347986,0.1603121276763574,13.550658835458176,4.198031711615501,8.110704719613777,0.16007262468338013,-0.029724538326263428,-0.02183133363723755,0.15576612949371338,-0.6542105078697205,-0.28472527861595154,0.4165566861629486,0.11503001302480698,0.04461746662855148,0.06586897373199463,0.9901700019836426,0.09300112724304199,-2.2952630519866943,0.16031213104724884,-0.029724538326263428,-0.02183133363723755,0.15576612949371338,-0.08249831199645996,-0.07988958060741425,0.15576612949371338,-0.12554001808166504,-0.1454886794090271,0.15576612949371338,-0.15778988599777222,-0.21701332926750183,0.15576612949371338,-0.1784537434577942,-0.2927023768424988,0.15576612949371338,-0.187022864818573,-0.3706921339035034,0.15576612949371338,-0.1832861304283142,-0.44906219840049744,0.15576612949371338,-0.16733568906784058,-0.5258828401565552,0.15576612949371338,-0.13956421613693237,-0.5992624759674072,0.15576612949371338,-0.10065555572509766,-0.6673943400382996,0.15576612949371338,1.5707963705062866,0.9115992784500122,1.5707963705062866,0.20000000298023224,14.999993814677511,10.37988299589362,-3.1965578532994163,38675.0
1.5001,0.0057,1,1,-0.7220818996429443,0.3101131319999695,0.3555607497692108,-0.748308539390564,0.2838134169578552,0.5000964999198914,-0.6321603059768677,-0.3316724896430969,0.4436294138431549,0.9907075762748718,0.11646586656570435,0.0253666453063488,0.06548881530761719,-0.004375020232836156,-0.9280226237331786,0.22077954976649958,13.546431672946781,2.0061880256519564,7.802132054515276,0.1492316871881485,-0.02622663974761963,-0.026299715042114258,0.14453575015068054,-0.6321603059768677,-0.3316724896430969,0.4436294138431549,0.11646586656570435,0.0253666453063488,0.06548881530761719,0.9907075762748718,-0.004375020042061806,-0.9280226230621338,0.22077955305576324,-0.02622663974761963,-0.026299715042114258,0.14453575015068054,-0.07713514566421509,-0.08600026369094849,0.14453575015068054,-0.11807763576507568,-0.1529296487569809,0.14453575015068054,-0.14804601669311523,-0.22543981671333313,0.14453575015068054,-0.1663023829460144,-0.30174535512924194,0.14453575015068054,-0.17239707708358765,-0.3799673914909363,0.14453575015068054,-0.16618019342422485,-0.458179771900177,0.14453575015068054,-0.14780467748641968,-0.534456729888916,0.14453575015068054,-0.11772310733795166,-0.6069200038909912,0.14453575015068054,-0.07667607069015503,-0.6737853288650513,0.14453575015068054,1.5707963705062866,0.8145583868026733,1.5707963705062866,0.20000000298023224,14.999996907338755,12.68994149794681,-3.813703183496406,38675.0
1.52,0.005,1,1,-0.7346780896186829,0.3036118149757385,0.3629959523677826,-0.7592236399650574,0.27253255248069763,0.5000964999198914,-0.6183168292045593,-0.375244677066803,0.4401460289955139,0.9906338453292847,0.1163950115442276,0.020077325403690338,0.06849614530801773,0.030994782147372286,0.582101900002669,0.16253087375952965,13.49888453015579,1.3656789269259337,8.072317870394999,0.14270587265491486,-0.02454555034637451,-0.031079262495040894,0.13710054755210876,-0.6183168292045593,-0.375244677066803,0.4401460289955139,0.1163950115442276,0.020077325403690338,0.06849614530801773,0.9906338453292847,0.030994782224297523,0.5821018815040588,0.16253086924552917,-0.02454555034637451,-0.031079262495040894,0.13710054755210876,-0.07355493307113647,-0.09234842658042908,0.13710054755210876,-0.11237633228302002,-0.1605300009250641,0.13710054755210876,-0.1400538682937622,-0.23394516110420227,0.13710054755210876,-0.15590590238571167,-0.3107861876487732,0.13710054755210876,-0.1595422625541687,-0.38916096091270447,0.13710054755210876,-0.1508733034133911,-0.46713966131210327,0.13710054755210876,-0.13011252880096436,-0.5428022146224976,0.13710054755210876,-0.09777110815048218,-0.6142855286598206,0.13710054755210876,-0.054645419120788574,-0.6798294186592102,0.13710054755210876,1.5707963705062866,0.2997925281524658,1.5707963705062866,0.20000000298023224,14.999998453669377,13.844970748973406,-3.2733315517369435,38675.0
1.5396,0.0055,1,1,-0.753747284412384,0.298081636428833,0.383561372756958,-0.76957768201828,0.26114338636398315,0.5000964999198914,-0.6191706657409668,-0.41415736079216003,0.46857818961143494,0.9904115200042725,0.11511973291635513,0.02806592546403408,0.0710124671459198,0.1054786728065483,1.3681944826543555,0.09559719667413422,13.426438913730877,2.249079322867045,8.466923907515083,0.12326991558074951,-0.015830397605895996,-0.036938250064849854,0.11653512716293335,-0.6191706657409668,-0.41415736079216003,0.46857818961143494,0.11511973291635513,0.02806592546403408,0.0710124671459198,0.9904115200042725,0.1054786741733551,1.3681944608688354,0.09559720009565353,-0.015830397605895996,-0.036938250064849854,0.11653512716293335,-0.06293070316314697,-0.09968690574169159,0.11653512716293335,-0.09963500499725342,-0.16903112828731537,0.11653512716293335,-0.12503963708877563,-0.24326343834400177,0.11653512716293335,-0.13851898908615112,-0.32055598497390747,0.11653512716293335,-0.13974112272262573,-0.3990055322647095,0.11653512716293335,-0.12867605686187744,-0.4766804575920105,0.11653512716293335,-0.10559618473052979,-0.5516681671142578,0.11653512716293335,-0.07106977701187134,-0.622122049331665,0.11653512716293335,-0.02594703435897827,-0.6863074898719788,0.11653512716293335,1.5707963705062866,0.4639180898666382,1.5707963705062866,0.20000000298023224,14.999999226834689,14.422485374486703,-2.484119477496802,38675.0
1.5602,0.0062,1,1,-0.7665988206863403,0.29116231203079224,0.38482052087783813,-0.7800195813179016,0.24890486896038055,0.5000964999198914,-0.5991008281707764,-0.4473804235458374,0.4327274262905121,0.9897069334983826,0.11443310976028442,0.043270934373140335,0.07423578202724457,0.06251890085091145,1.4076878300396856,0.061162444716814805,13.50239545641955,3.9370845340698613,9.04543378737361,0.12350854277610779,-0.01342076063156128,-0.04225744307041168,0.11527597904205322,-0.5991008281707764,-0.4473804235458374,0.4327274262905121,0.11443310976028442,0.043270934373140335,0.07423578202724457,0.9897069334983826,0.0625189021229744,1.407687783241272,0.061162445694208145,-0.01342076063156128,-0.04225744307041168,0.11527597904205322,-0.058477938175201416,-0.106488898396492,0.11527597904205322,-0.09293240308761597,-0.17697805166244507,0.11527597904205322,-0.11593568325042725,-0.2519892454147339,0.11527597904205322,-0.12692147493362427,-0.3296754062175751,0.11527597904205322,-0.12561917304992676,-0.4081237018108368,0.11527597904205322,-0.11206096410751343,-0.4854024350643158,0.11527597904205322,-0.08658057451248169,-0.5596087574958801,0.11527597904205322,-0.049805402755737305,-0.6289154887199402,0.11527597904205322,-0.002641141414642334,-0.6916160583496094,0.11527597904205322,1.5707963705062866,0.258556604385376,1.5707963705062866,0.20000000298023224,14.999999613417344,14.61834378550123,-1.3270997177797166,38675.0
1.58,0.0057,1,1,-0.7760103344917297,0.2834767997264862,0.4025094211101532,-0.789703905582428,0.23679983615875244,0.5000964999198914,-0.5616260766983032,-0.4905273914337158,0.5008885264396667,0.9889546036720276,0.11330576241016388,0.05848420038819313,0.07555308938026428,0.10942295586138855,1.4811520608159028,-0.006748126149651586,13.53772082425354,5.655980708063914,9.409310111182707,0.10903894156217575,-0.013693571090698242,-0.046676963567733765,0.09758707880973816,-0.5616260766983032,-0.4905273914337158,0.5008885264396667,0.11330576241016388,0.05848420038819313,0.07555308938026428,0.9889546036720276,0.1094229593873024,1.481152057647705,-0.006748126354068518,-0.013693571090698242,-0.046676963567733765,0.09758707880973816,-0.05673789978027344,-0.11227434873580933,0.09758707880973816,-0.08899056911468506,-0.18379773199558258,0.09758707880973816,-0.1096574068069458,-0.25948598980903625,0.09758707880973816,-0.11822956800460815,-0.33747538924217224,0.09758707880973816,-0.11449599266052246,-0.4158456027507782,0.09758707880973816,-0.0985485315322876,-0.49266690015792847,0.09758707880973816,-0.07077997922897339,-0.5660476684570312,0.09758707880973816,-0.031874001026153564,-0.634181022644043,0.09758707880973816,0.017211437225341797,-0.6953892707824707,0.09758707880973816,1.5707963705062866,-0.6028043627738953,1.5707963705062866,0.15733014047145844,14.999999806708672,-0.19082810724938604,-0.599347070161562,34675.0
1.6002,0.0053,1,1,-0.7871294021606445,0.2731844186782837,0.41250351071357727,-0.7991542220115662,0.22419944405555725,0.5000964999198914,-0.5364641547203064,-0.5345954298973083,0.5019019246101379,0.9879937767982483,0.1132923886179924,0.07129498571157455,0.07712448388338089,0.14779854957007715,1.0403608172042007,0.030904825559176455,13.690113264617798,7.088527132552972,9.779074778879668,0.10107747465372086,-0.01202481985092163,-0.04898497462272644,0.08759298920631409,-0.5364641547203064,-0.5345954298973083,0.5019019246101379,0.1132923886179924,0.07129498571157455,0.07712448388338089,0.9879937767982483,0.147798553109169,1.0403608083724976,0.030904825776815414,-0.01202481985092163,-0.04898497462272644,0.08759298920631409,-0.052981674671173096,-0.11590558290481567,0.08759298920631409,-0.08296555280685425,-0.18840935826301575,0.08759298920631409,-0.1012381911277771,-0.2647109925746918,0.08759298920631409,-0.107349693775177,-0.34293168783187866,0.08759298920631409,-0.10114949941635132,-0.4211454391479492,0.08759298920631409,-0.0827903151512146,-0.497426301240921,0.08759298920631409,-0.052724242210388184,-0.5698959827423096,0.08759298920631409,-0.011691510677337646,-0.6367701292037964,0.08759298920631409,0.039297401905059814,-0.6964019536972046,0.08759298920631409,1.5707963705062866,-0.6368505358695984,1.5707963705062866,0.09472682327032089,14.999999903354336,-7.595414053624693,0.14018226523240737,30675.0
1.6207,0.006,1,1,-0.8018234968185425,0.26593583822250366,0.42351847887039185,-0.808200478553772,0.21131135523319244,0.5000964999198914,-0.5134785771369934,-0.5536788702011108,0.4755527675151825,0.9874457120895386,0.11258627474308014,0.07918418943881989,0.07748012989759445,0.02706213377754431,0.3978701748768446,-0.05036496184390037,13.704459031655984,7.986153297472083,9.934258820392335,0.09427987039089203,-0.006376981735229492,-0.05462448298931122,0.07657802104949951,-0.5134785771369934,-0.5536788702011108,0.4755527675151825,0.11258627474308014,0.07918418943881989,0.07748012989759445,0.9874457120895386,0.027062132954597473,0.39787018299102783,-0.050364959985017776,-0.006376981735229492,-0.05462448298931122,0.07657802104949951,-0.045206308364868164,-0.12280157208442688,0.07657802104949951,-0.07289230823516846,-0.1962135136127472,0.07657802104949951,-0.08875328302383423,-0.2730526924133301,0.07657802104949951,-0.09239870309829712,-0.3514270484447479,0.07657802104949951,-0.08373880386352539,-0.4294067621231079,0.07657802104949951,-0.06298679113388062,-0.5050716996192932,0.07657802104949951,-0.030653655529022217,-0.5765587687492371,0.07657802104949951,0.012464404106140137,-0.6421076655387878,0.07657802104949951,0.06530576944351196,-0.7001044154167175,0.07657802104949951,1.5707963705062866,-0.015530705451965332,1.5707963705062866,0.042223989963531494,14.999999951677168,-4.242628964441562,0.45055034825771945,29452.0
1.6398,0.0058,1,1,-0.8117901086807251,0.25445443391799927,0.4329213798046112,-0.8167572021484375,0.198269784450531,0.5000964999198914,-0.4808123707771301,-0.594008207321167,0.4640142619609833,0.987496554851532,0.11321840435266495,0.0780097246170044,0.07710110396146774,0.13933570606083465,-1.1163567820707019,0.036568330981068785,13.760557366713993,7.851736839535741,9.877759655400563,0.087714783847332,-0.004967093467712402,-0.05618464946746826,0.06717512011528015,-0.4808123707771301,-0.594008207321167,0.4640142619609833,0.11321840435266495,0.0780097246170044,0.07710110396146774,0.987496554851532,0.13933570683002472,-1.1163567304611206,0.036568332463502884,-0.004967093467712402,-0.05618464946746826,0.06717512011528015,-0.04165089130401611,-0.12553973495960236,0.06717512011528015,-0.06703352928161621,-0.19977957010269165,0.06717512011528015,-0.08049005270004272,-0.2770760953426361,0.06717512011528015,-0.08168900012969971,-0.35552603006362915,0.06717512011528015,-0.07060092687606812,-0.43319767713546753,0.06717512011528015,-0.04749882221221924,-0.5081784725189209,0.06717512011528015,-0.01295161247253418,-0.5786222219467163,0.06717512011528015,0.032190144062042236,-0.6427942514419556,0.06717512011528015,0.08681482076644897,-0.6991145610809326,0.06717512011528015,1.5707963705062866,0.8480304479598999,1.5707963705062866,0.021362630650401115,14.999999975838584,5.3786855177792186,0.3375520182741633,29452.0
1.66,0.006,1,1,-0.8211691975593567,0.24222473800182343,0.4419983923435211,-0.8250221610069275,0.18476587533950806,0.5000964999198914,-0.45224228501319885,-0.631904661655426,0.44148170948028564,0.9883617162704468,0.11492972075939178,0.0648757666349411,0.07564029842615128,0.016329359477334996,-1.6430829077370808,-0.013983404799922113,13.796168034410956,6.364594031651502,9.523493605218947,0.08180315792560577,-0.0038529634475708008,-0.05745886266231537,0.05809810757637024,-0.45224228501319885,-0.631904661655426,0.44148170948028564,0.11492972075939178,0.0648757666349411,0.07564029842615128,0.9883617162704468,0.016329359263181686,-1.643082857131958,-0.013983405195176601,-0.0038529634475708008,-0.05745886266231537,0.05809810757637024,-0.0383225679397583,-0.12794062495231628,0.05809810757637024,-0.06134200096130371,-0.20294687151908875,0.05809810757637024,-0.07234442234039307,-0.2806306779384613,0.05809810757637024,-0.07105898857116699,-0.3590792417526245,0.05809810757637024,-0.05751734972000122,-0.4363608956336975,0.05809810757637024,-0.03205287456512451,-0.5105726718902588,0.05809810757637024,0.00470733642578125,-0.579887330532074,0.05809810757637024,0.05185818672180176,-0.6425979733467102,0.05809810757637024,0.10823863744735718,-0.697160542011261,0.05809810757637024,1.5707963705062866,1.3968547582626343,1.5707963705062866,0.021362630650401115,14.999999987919292,10.189342758889609,-0.370980082089032,29452.0
