t_s,telemetry_age_s,airborne,phase,pos_x,pos_y,pos_z,ref_x,ref_y,ref_z,vel_x,vel_y,vel_z,qw,qx,qy,qz,gyro_x,gyro_y,gyro_z,roll_meas_deg,pitch_meas_deg,yaw_meas_deg,pos_err,obs_0,obs_1,obs_2,obs_3,obs_4,obs_5,obs_6,obs_7,obs_8,obs_9,obs_10,obs_11,obs_12,act_roll_rad,act_pitch_rad,act_yaw_rad,act_thrust_N,cmd_roll_deg,cmd_pitch_deg,cmd_yaw,cmd_pwm
0.0,0.009,0,1,0.15207646787166595,0.3916933834552765,0.0023516654036939144,0.15257860720157623,0.3922390043735504,0.8004478812217712,0.01712474785745144,0.005559716839343309,0.0014536897651851177,0.9967693090438843,-0.0036583265755325556,-0.0044084880501031876,0.0801008939743042,-9.381601803594208e-05,0.0007301084086442191,-0.004665542499588029,-0.4583443149193072,-0.46996935887289765,9.190752241157693,0.7980965375900269,0.0005021393299102783,0.0005456209182739258,0.798096239566803,0.01712474785745144,0.005559716839343309,0.0014536897651851177,-0.0036583265755325556,-0.0044084880501031876,0.0801008939743042,0.9967693090438843,-9.381601557834074e-05,0.0007301084115169942,-0.004665542393922806,0.0005021393299102783,0.0005456209182739258,0.798096239566803,-0.005656734108924866,0.07876259088516235,0.798096239566803,-0.02397562563419342,0.15505316853523254,0.798096239566803,-0.05400343984365463,0.22753873467445374,0.798096239566803,-0.09500081092119217,0.294434517621994,0.798096239566803,-0.14595824480056763,0.3540932834148407,0.798096239566803,-0.20562098920345306,0.4050460755825043,0.798096239566803,-0.27251997590065,0.44603821635246277,0.798096239566803,-0.34500789642333984,0.4760604202747345,0.798096239566803,-0.42129987478256226,0.4943733513355255,0.798096239566803,0.9319335222244263,1.5707963705062866,0.6827183961868286,0.20000000298023224,15.0,15.0,0.20583569738239496,4000.0
0.02,0.0098,0,1,0.15241846442222595,0.3918033540248871,0.0023759091272950172,0.152323380112648,0.4081931412220001,0.8004478812217712,0.017004696652293205,0.005520623177289963,0.0008456247742287815,0.996770977973938,-0.003649042919278145,-0.004424754064530134,0.0800800770521164,0.011795628367395027,-0.03329275311178521,0.009319799854056846,-0.45742343768939864,-0.4719221153750634,9.188363750983212,0.7982403039932251,-9.50843095779419e-05,0.016389787197113037,0.7980719804763794,0.017004696652293205,0.005520623177289963,0.0008456247742287815,-0.003649042919278145,-0.004424754064530134,0.0800800770521164,0.996770977973938,0.011795628815889359,-0.033292751759290695,0.009319799952208996,-9.50843095779419e-05,0.016389787197113037,0.7980719804763794,-0.008746594190597534,0.09437042474746704,0.7980719804763794,-0.029490448534488678,0.17003759741783142,0.7980719804763794,-0.06181586533784866,0.24152812361717224,0.7980719804763794,-0.10492689907550812,0.3070816695690155,0.7980719804763794,-0.15776199102401733,0.36508414149284363,0.7980719804763794,-0.21902017295360565,0.41410723328590393,0.7980719804763794,-0.28719305992126465,0.45294389128685,0.7980719804763794,-0.3606020212173462,0.4806378185749054,0.7980719804763794,-0.437439501285553,0.49650707840919495,0.7980719804763794,0.7684952020645142,1.5707963705062866,0.6813138723373413,0.20000000298023224,15.0,15.0,0.2010587170334054,8000.0
0.0402,0.0084,0,1,0.15112365782260895,0.3932551443576813,0.002703098114579916,0.15157517790794373,0.4238804876804352,0.8004478812217712,0.009025996550917625,0.012781910598278046,0.0018654229352250695,0.9967609643936157,-0.004247127566486597,-0.0047114198096096516,0.08015861362218857,-0.0006231997858201637,0.01681381864824213,-0.004011610055851527,-0.5284128695578956,-0.4991345425770055,9.197844059566963,0.7983325719833374,0.00045152008533477783,0.030625343322753906,0.7977448105812073,0.009025996550917625,0.012781910598278046,0.0018654229352250695,-0.004247127566486597,-0.0047114198096096516,0.08015861362218857,0.9967609643936157,-0.0006231997977010906,0.016813818365335464,-0.004011610057204962,0.00045152008533477783,0.030625343322753906,0.7977448105812073,-0.0106448233127594,0.10829582810401917,0.7977448105812073,-0.03375488519668579,0.18327417969703674,0.7977448105812073,-0.06830962747335434,0.2537142336368561,0.7977448105812073,-0.11345820128917694,0.3178814947605133,0.7977448105812073,-0.1680888831615448,0.3741959035396576,0.7977448105812073,-0.2308564931154251,0.4212709367275238,0.7977448105812073,-0.300215482711792,0.45794734358787537,0.7977448105812073,-0.3744580149650574,0.4833221137523651,0.7977448105812073,-0.45175594091415405,0.49677035212516785,0.7977448105812073,0.6709481477737427,1.5707963705062866,0.6833504438400269,0.20000000298023224,15.0,15.0,0.2200193342009157,12000.0
0.06,0.01,0,1,0.15129588544368744,0.39351215958595276,0.0027365265414118767,0.1503291130065918,0.4395950138568878,0.8004478812217712,0.007816141471266747,0.013376438990235329,0.001450268318876624,0.99675452709198,-0.004150460474193096,-0.004858918022364378,0.08023470640182495,0.00027636843680709086,-0.0063155705319738725,0.0008427687052073025,-0.5187663190302748,-0.5168307030394194,9.206632727772595,0.7990419268608093,-0.0009667724370956421,0.04608285427093506,0.7977113723754883,0.007816141471266747,0.013376438990235329,0.001450268318876624,-0.004150460474193096,-0.004858918022364378,0.08023470640182495,0.99675452709198,0.00027636843151412904,-0.0063155703246593475,0.0008427686989307404,-0.0009667724370956421,0.04608285427093506,0.7977113723754883,-0.01450607180595398,0.12336495518684387,0.7977113723754883,-0.03996825963258743,0.19757750630378723,0.7977113723754883,-0.07672636955976486,0.2668932378292084,0.7977113723754883,-0.12387529015541077,0.329605370759964,0.7977113723754883,-0.18025407195091248,0.38416966795921326,0.7977113723754883,-0.24447447061538696,0.4292425811290741,0.7977113723754883,-0.3149551749229431,0.4637143313884735,0.7977113723754883,-0.38996070623397827,0.4867360293865204,0.7977113723754883,-0.46764421463012695,0.49774089455604553,0.7977113723754883,0.5198761224746704,1.5707963705062866,0.6867038011550903,0.20000000298023224,15.0,15.0,0.23759667061221534,16000.0
0.0801,0.0092,0,1,0.15045301616191864,0.39479658007621765,0.00617534713819623,0.14859816431999207,0.45518454909324646,0.8004478812217712,0.0022353532258421183,0.019471298903226852,0.027842333540320396,0.9967491626739502,-0.0043799132108688354,-0.005090614780783653,0.080274797976017,0.004958169807928095,-0.0355020553760607,0.025191928902036163,-0.5471298235858499,-0.5411631739160659,9.211505638428871,0.7965670228004456,-0.0018548518419265747,0.06038796901702881,0.7942725419998169,0.0022353532258421183,0.019471298903226852,0.027842333540320396,-0.0043799132108688354,-0.005090614780783653,0.080274797976017,0.9967491626739502,0.004958170000463724,-0.035502053797245026,0.025191929191350937,-0.0018548518419265747,0.06038796901702881,0.7942725419998169,-0.01781158149242401,0.1372072994709015,0.7942725419998169,-0.04558904469013214,0.21058472990989685,0.7942725419998169,-0.08450327813625336,0.2787133753299713,0.7942725419998169,-0.13359607756137848,0.3399157226085663,0.7942725419998169,-0.191658616065979,0.3926847279071808,0.7942725419998169,-0.2572612166404724,0.43572112917900085,0.7942725419998169,-0.32878851890563965,0.46796515583992004,0.7942725419998169,-0.4044792652130127,0.4886228144168854,0.7942725419998169,-0.48246967792510986,0.4971855580806732,0.7942725419998169,0.3779258728027344,1.5707963705062866,0.6892198324203491,0.20000000298023224,15.0,15.0,0.24734249192474775,20000.0
0.0999,0.0098,0,1,0.15186084806919098,0.39201340079307556,0.0017168602207675576,0.1463754028081894,0.4707353115081787,0.8004478812217712,0.01714109256863594,0.006756178103387356,-0.004721838049590588,0.9967467188835144,-0.00316917197778821,-0.004549788776785135,0.08039457350969315,0.010504234507085783,-0.033693398650057806,0.020151424244086637,-0.403912149081237,-0.4904811029902039,9.22435443958622,0.8026198148727417,-0.005485445261001587,0.07872191071510315,0.7987310290336609,0.01714109256863594,0.006756178103387356,-0.004721838049590588,-0.00316917197778821,-0.004549788776785135,0.08039457350969315,0.9967467188835144,0.010504234582185745,-0.03369339928030968,0.020151425153017044,-0.005485445261001587,0.07872191071510315,0.7987310290336609,-0.023847490549087524,0.15500208735466003,0.7987310290336609,-0.05391629785299301,0.22747066617012024,0.7987310290336609,-0.09495151042938232,0.2943432629108429,0.7987310290336609,-0.14594267308712006,0.3539731800556183,0.7987310290336609,-0.2056342363357544,0.404892235994339,0.7987310290336609,-0.2725563943386078,0.4458465278148651,0.7987310290336609,-0.3450612723827362,0.47582772374153137,0.7987310290336609,-0.42136359214782715,0.494097501039505,0.7987310290336609,-0.4995845556259155,0.5002059936523438,0.7987310290336609,0.17078685760498047,1.5347691774368286,0.7012325525283813,0.20000000298023224,12.392683068533575,15.0,0.2730400942394217,24000.0
0.1198,0.0094,0,1,0.1529744416475296,0.39111101627349854,0.0012956717982888222,0.14365845918655396,0.4862439036369324,0.8004478812217712,0.01795482076704502,0.0035428276751190424,-0.006515059620141983,0.9967414736747742,-0.0028871262911707163,-0.004353940486907959,0.0804811641573906,0.038396574424651365,0.05548364900519514,0.011181657384023274,-0.3699313543302841,-0.47067794976793664,9.234084149331697,0.8048486113548279,-0.009315982460975647,0.09513288736343384,0.7991521954536438,0.01795482076704502,0.0035428276751190424,-0.006515059620141983,-0.0028871262911707163,-0.004353940486907959,0.0804811641573906,0.9967414736747742,0.038396574556827545,0.05548365041613579,0.011181657202541828,-0.009315982460975647,0.09513288736343384,0.7991521954536438,-0.030070647597312927,0.17079710960388184,0.7991521954536438,-0.062406279146671295,0.24228298664093018,0.7991521954536438,-0.10552666336297989,0.3078303933143616,0.7991521954536438,-0.1583700329065323,0.3658252954483032,0.7991521954536438,-0.2196352183818817,0.4148396849632263,0.7991521954536438,-0.287813663482666,0.4536665678024292,0.7991521954536438,-0.3612265884876251,0.48135000467300415,0.7991521954536438,-0.438066303730011,0.49720829725265503,0.7991521954536438,-0.5164408087730408,0.5008509755134583,0.7991521954536438,-0.004564762115478516,1.4161440134048462,0.7149804830551147,0.20000000298023224,6.065570732417723,15.0,0.2924995137303835,28000.0
0.1403,0.0097,0,1,0.15224114060401917,0.39148178696632385,0.001060343929566443,0.14044851064682007,0.5016862154006958,0.8004478812217712,0.017696628347039223,0.007326736580580473,-0.005199945531785488,0.996730387210846,-0.002889784285798669,-0.003762844018638134,0.08064742386341095,0.07398721735766003,-0.08199840539078189,0.04719861727179668,-0.3648480408991569,-0.4030776803957456,9.252939767903767,0.8070343732833862,-0.011792629957199097,0.11020442843437195,0.799387514591217,0.017696628347039223,0.007326736580580473,-0.005199945531785488,-0.002889784285798669,-0.003762844018638134,0.08064742386341095,0.996730387210846,0.07398721575737,-0.08199840784072876,0.047198615968227386,-0.011792629957199097,0.11020442843437195,0.799387514591217,-0.0349234864115715,0.18517640233039856,0.799387514591217,-0.06949775665998459,0.25560685992240906,0.799387514591217,-0.11466411501169205,0.31976160407066345,0.799387514591217,-0.16931040585041046,0.3760608732700348,0.799387514591217,-0.23209106922149658,0.4231185019016266,0.799387514591217,-0.3014602065086365,0.4597756564617157,0.799387514591217,-0.37570977210998535,0.48512986302375793,0.799387514591217,-0.4530114531517029,0.49855664372444153,0.799387514591217,-0.5314618349075317,0.49972549080848694,0.799387514591217,-0.16246819496154785,1.3584569692611694,0.7173367738723755,0.20000000298023224,-1.6215855719937968,15.0,0.3302107508745557,32000.0
0.1596,0.0094,0,1,0.15212108194828033,0.3919232189655304,-0.000416723225498572,0.13683471083641052,0.5167025327682495,0.8004478812217712,0.014617602340877056,0.009803990833461285,-0.013696900568902493,0.9966831803321838,-0.002584405243396759,-0.004371763207018375,0.08120890706777573,-0.004783295831661563,-0.10045979592948265,0.03578777094913417,-0.3358652201181478,-0.4752608927244998,9.31761862211611,0.8106710910797119,-0.015286371111869812,0.12477931380271912,0.800864577293396,0.014617602340877056,0.009803990833461285,-0.013696900568902493,-0.002584405243396759,-0.004371763207018375,0.08120890706777573,0.9966831803321838,-0.004783296026289463,-0.10045979917049408,0.03578777238726616,-0.015286371111869812,0.12477931380271912,0.800864577293396,-0.040721796452999115,0.19900104403495789,0.800864577293396,-0.07745490968227386,0.26833006739616394,0.800864577293396,-0.1245812252163887,0.33105912804603577,0.800864577293396,-0.18094033002853394,0.38564375042915344,0.800864577293396,-0.24514448642730713,0.4307398498058319,0.800864577293396,-0.3156127333641052,0.46523699164390564,0.800864577293396,-0.3906099796295166,0.48828575015068054,0.800864577293396,-0.46828949451446533,0.49931856989860535,0.800864577293396,-0.5467385649681091,0.4980638325214386,0.800864577293396,-0.24482274055480957,1.2796980142593384,0.7295709848403931,0.20000000298023224,-7.824447667305361,15.0,0.45956845929921325,36000.0
0.1795,0.0092,0,1,0.1529093086719513,0.3915408253669739,0.002362444531172514,0.13271234929561615,0.5317601561546326,0.8004478812217712,0.01782434992492199,0.008641823194921017,0.00013171677710488439,0.9966574907302856,-0.002750845393165946,-0.003448262345045805,0.08156273514032364,0.00812988283425263,0.2866299361442349,0.07784686182410622,-0.346408126644182,-0.36811302146802144,9.357990126352547,0.8105613589286804,-0.020196959376335144,0.1402193307876587,0.7980854511260986,0.01782434992492199,0.008641823194921017,0.00013171677710488439,-0.002750845393165946,-0.003448262345045805,0.08156273514032364,0.9966574907302856,0.008129882626235485,0.28662994503974915,0.07784686237573624,-0.020196959376335144,0.1402193307876587,0.7980854511260986,-0.04793717712163925,0.21361082792282104,0.7980854511260986,-0.08681681752204895,0.28175920248031616,0.7980854511260986,-0.1358785331249237,0.34298646450042725,0.7980854511260986,-0.1939142942428589,0.39578497409820557,0.7980854511260986,-0.2594950199127197,0.4388546347618103,0.7980854511260986,-0.33100593090057373,0.4711349606513977,0.7980854511260986,-0.4066861867904663,0.49183112382888794,0.7980854511260986,-0.48467227816581726,0.5004334449768066,0.7980854511260986,-0.5630439519882202,0.49673014879226685,0.7980854511260986,-0.3887237310409546,1.1009525060653687,0.7397128343582153,0.20000000298023224,-11.41222383365268,15.0,0.5403114677721159,38675.0
0.1999,0.0092,0,1,0.1523124873638153,0.39161965250968933,0.0004695796815212816,0.1280093938112259,0.5470276474952698,0.8004478812217712,0.013403963297605515,0.011460427194833755,-0.0010446072556078434,0.9966104626655579,-0.003382160561159253,0.001510521280579269,0.08217012137174606,0.0015410323131020342,1.3663422541162054,-0.011680139762545361,-0.3720352873241831,0.2043531482636184,9.426023000031869,0.8152959942817688,-0.024303093552589417,0.15540799498558044,0.7999783158302307,0.013403963297605515,0.011460427194833755,-0.0010446072556078434,-0.003382160561159253,0.001510521280579269,0.08217012137174606,0.9966104626655579,0.0015410323394462466,1.366342306137085,-0.011680140160024166,-0.024303093552589417,0.15540799498558044,0.7999783158302307,-0.05437375605106354,0.22787579894065857,0.7999783158302307,-0.09541067481040955,0.29474732279777527,0.7999783158302307,-0.14640337228775024,0.3543759882450104,0.7999783158302307,-0.20609623193740845,0.4052934944629669,0.7999783158302307,-0.2730194330215454,0.44624611735343933,0.7999783158302307,-0.3455250859260559,0.4762254059314728,0.7999783158302307,-0.42182788252830505,0.4944932162761688,0.7999783158302307,-0.5000489950180054,0.50059974193573,0.7999783158302307,-0.5782623291015625,0.4943946301937103,0.7999783158302307,-0.3923414945602417,0.7565759420394897,0.7511559724807739,0.20000000298023224,-13.206111916826341,15.0,0.6763772151307424,38675.0
0.2202,0.0092,0,1,0.15317341685295105,0.39133507013320923,0.003279798896983266,0.1229192242026329,0.5618653297424316,0.8004478812217712,0.018620092421770096,0.010415450669825077,0.04121725633740425,0.9964783191680908,-0.004570026881992817,0.015621332451701164,0.08224352449178696,0.03709596977204073,1.8499541985791825,0.017147762404181255,-0.374813589772373,1.8271482710121174,9.43033695009913,0.8157651424407959,-0.030254192650318146,0.1705302596092224,0.7971680760383606,0.018620092421770096,0.010415450669825077,0.04121725633740425,-0.004570026881992817,0.015621332451701164,0.08224352449178696,0.9964783191680908,0.037095971405506134,1.8499542474746704,0.017147762700915337,-0.030254192650318146,0.1705302596092224,0.7971680760383606,-0.0625833198428154,0.24201911687850952,0.7971680760383606,-0.10569774359464645,0.3075704574584961,0.7971680760383606,-0.15853583812713623,0.3655701279640198,0.7971680760383606,-0.2197965681552887,0.414590060710907,0.7971680760383606,-0.28797149658203125,0.4534232020378113,0.7971680760383606,-0.3613818883895874,0.4811133146286011,0.7971680760383606,-0.43822017312049866,0.4969785809516907,0.7971680760383606,-0.5165942907333374,0.5006284117698669,0.7971680760383606,-0.5945745706558228,0.4919728636741638,0.7971680760383606,-0.5287461280822754,0.4384859800338745,0.759583592414856,0.20000000298023224,-14.10305595841317,15.0,0.6850051152652635,38675.0
0.2398,0.0096,0,1,0.15359024703502655,0.3915654718875885,0.004385884385555983,0.11738434433937073,0.576490044593811,0.8004478812217712,0.024145644158124924,0.012801271863281727,0.068467877805233,0.9959417581558228,-0.005955755710601807,0.03643714636564255,0.08206641674041748,-0.18890134507068296,2.670753229714836,-0.08730579416006559,-0.3379679023666631,4.2182629663022055,9.40868857874394,0.8180602788925171,-0.03620590269565582,0.18492457270622253,0.7960619926452637,0.024145644158124924,0.012801271863281727,0.068467877805233,-0.005955755710601807,0.03643714636564255,0.08206641674041748,0.9959417581558228,-0.18890134990215302,2.670753240585327,-0.08730579167604446,-0.03620590269565582,0.18492457270622253,0.7960619926452637,-0.07075469195842743,0.25536754727363586,0.7960619926452637,-0.11589783430099487,0.3195386230945587,0.7960619926452637,-0.1705237627029419,0.3758576810359955,0.7960619926452637,-0.23328739404678345,0.42293795943260193,0.7960619926452637,-0.3026432991027832,0.45962026715278625,0.7960619926452637,-0.37688368558883667,0.4850012958049774,0.7960619926452637,-0.4541804790496826,0.49845603108406067,0.7960619926452637,-0.532630443572998,0.49965330958366394,0.7960619926452637,-0.6103018522262573,0.48856350779533386,0.7960619926452637,-0.4757239818572998,-0.00631403923034668,0.7861813306808472,0.20000000298023224,-14.551527979206586,7.319116100210552,0.641708372554905,38675.0
0.2601,0.0099,0,1,0.15584903955459595,0.3911083936691284,0.00503866421058774,0.11129719763994217,0.5911598801612854,0.8004478812217712,0.07124539464712143,0.005697319284081459,0.08139710873365402,0.9945611357688904,-0.010483932681381702,0.06339873373508453,0.08195636421442032,-1.1643912865460797,2.451984932493078,-0.007430652204998212,-0.6043956579039663,7.343999535623914,9.382771546951108,0.8213898539543152,-0.04455184191465378,0.20005148649215698,0.7954092025756836,0.07124539464712143,0.005697319284081459,0.08139710873365402,-0.010483932681381702,0.06339873373508453,0.08195636421442032,0.9945611357688904,-1.164391279220581,2.4519848823547363,-0.007430652156472206,-0.04455184191465378,0.20005148649215698,0.7954092025756836,-0.08132056146860123,0.26936155557632446,0.7954092025756836,-0.12847907841205597,0.33206647634506226,0.7954092025756836,-0.18486620485782623,0.3866221308708191,0.7954092025756836,-0.24909350275993347,0.43168526887893677,0.7954092025756836,-0.31957948207855225,0.46614623069763184,0.7954092025756836,-0.39458853006362915,0.48915642499923706,0.7954092025756836,-0.47227367758750916,0.5001493692398071,0.7954092025756836,-0.5507221221923828,0.4988543391227722,0.7954092025756836,-0.6280020475387573,0.48530322313308716,0.7954092025756836,-0.26446735858917236,-0.22137689590454102,0.8600255250930786,0.20000000298023224,-14.775763989603293,-2.682422858413304,0.5898743089692335,38675.0
0.2796,0.009,0,1,0.15616363286972046,0.3894486725330353,0.006622491404414177,0.10494811832904816,0.6052026748657227,0.8004478812217712,0.0855865404009819,-0.012422031722962856,0.1058589294552803,0.9925553202629089,-0.0228462815284729,0.08665896207094193,0.08246342837810516,-1.562677413895681,1.973873081471387,-0.047121772590780285,-1.808060209669512,10.124960025032246,9.338470337119269,0.8242157101631165,-0.0512155145406723,0.21575400233268738,0.7938253879547119,0.0855865404009819,-0.012422031722962856,0.1058589294552803,-0.0228462815284729,0.08665896207094193,0.08246342837810516,0.9925553202629089,-1.5626773834228516,1.9738731384277344,-0.04712177440524101,-0.0512155145406723,0.21575400233268738,0.7938253879547119,-0.09010284394025803,0.2838980257511139,0.7938253879547119,-0.13917148113250732,0.34511974453926086,0.7938253879547119,-0.19721317291259766,0.3979116976261139,0.7938253879547119,-0.2627987563610077,0.4409739673137665,0.7938253879547119,-0.3343133330345154,0.4732462465763092,0.7938253879547119,-0.4099958837032318,0.4939338266849518,0.7938253879547119,-0.48798295855522156,0.5025273561477661,0.7938253879547119,-0.5663541555404663,0.4988152086734772,0.7938253879547119,-0.6431798338890076,0.4828888475894928,0.7938253879547119,-0.32372915744781494,-0.36255860328674316,0.9253736734390259,0.20000000298023224,-14.887881994801646,-8.841211429206652,0.5012718893055128,38675.0
0.2996,0.0097,0,1,0.15817803144454956,0.38971978425979614,0.0068253460340201855,0.09804192930459976,0.6192931532859802,0.8004478812217712,0.14270834624767303,-0.006047382019460201,0.10570579022169113,0.9903504252433777,-0.03889518603682518,0.10371135175228119,0.08327760547399521,-1.5097032782304243,0.5033021591405324,0.02550968563197465,-3.506099630612562,12.233682771715884,9.237404500278405,0.8283459544181824,-0.0601361021399498,0.22957336902618408,0.7936225533485413,0.14270834624767303,-0.006047382019460201,0.10570579022169113,-0.03889518603682518,0.10371135175228119,0.08327760547399521,0.9903504252433777,-1.509703278541565,0.5033021569252014,0.025509685277938843,-0.0601361021399498,0.22957336902618408,0.7936225533485413,-0.10114263743162155,0.2964634895324707,0.7936225533485413,-0.15210823714733124,0.35611534118652344,0.7936225533485413,-0.2117779701948166,0.407059907913208,0.7936225533485413,-0.27868255972862244,0.44804292917251587,0.7936225533485413,-0.35117459297180176,0.4780551791191101,0.7936225533485413,-0.42746907472610474,0.49635767936706543,0.7936225533485413,-0.5056873559951782,0.5024996995925903,0.7936225533485413,-0.5839035511016846,0.4963301420211792,0.7936225533485413,-0.6601915955543518,0.47800081968307495,0.7936225533485413,-0.4753614664077759,-0.5063934326171875,1.0068246126174927,0.20000000298023224,-14.943940997400823,-11.920605714603326,0.29914021562383764,38675.0
0.3195,0.0094,0,1,0.15983043611049652,0.3894711136817932,0.009282724000513554,0.09070330113172531,0.6331484317779541,0.8004478812217712,0.18609419465065002,0.005710237193852663,0.12312506139278412,0.9895038604736328,-0.0526348240673542,0.10458724200725555,0.08468283712863922,-1.1073925818414951,-0.9751770866263396,-0.013366093421917453,-5.079577827277187,12.467951780390168,9.227787830721674,0.8307222723960876,-0.06912713497877121,0.2436773180961609,0.7911651730537415,0.18609419465065002,0.005710237193852663,0.12312506139278412,-0.0526348240673542,0.10458724200725555,0.08468283712863922,0.9895038604736328,-1.1073925495147705,-0.9751771092414856,-0.0133660938590765,-0.06912713497877121,0.2436773180961609,0.7911651730537415,-0.11221076548099518,0.3092489242553711,0.7911651730537415,-0.165021613240242,0.36727339029312134,0.7911651730537415,-0.22625932097434998,0.41632211208343506,0.7911651730537415,-0.29441598057746887,0.45518726110458374,0.7911651730537415,-0.3678133487701416,0.4829118251800537,0.7911651730537415,-0.4446442127227783,0.4988132119178772,0.7911651730537415,-0.523016631603241,0.5024998188018799,0.7911651730537415,-0.6010009050369263,0.49388086795806885,0.7911651730537415,-0.6766767501831055,0.47316867113113403,0.7911651730537415,-0.779722273349762,-0.7504534721374512,1.0334278345108032,0.20000000298023224,-14.971970498700411,-13.460302857301663,0.27990687651035556,38675.0
0.3397,0.0083,0,1,0.16386649012565613,0.3905352056026459,0.010612957179546356,0.0828327164053917,0.6469377875328064,0.8004478812217712,0.22708311676979065,0.03525935113430023,0.1351507604122162,0.9902989268302917,-0.06148219108581543,0.08951891213655472,0.086673803627491,-0.8133236045348284,-2.318897451758003,-0.02621570628171147,-6.210511626831236,10.833683436715244,9.414388342538645,0.834354817867279,-0.08103377372026443,0.2564025819301605,0.7898349165916443,0.22708311676979065,0.03525935113430023,0.1351507604122162,-0.06148219108581543,0.08951891213655472,0.086673803627491,0.9902989268302917,-0.8133236169815063,-2.3188974857330322,-0.026215706020593643,-0.08103377372026443,0.2564025819301605,0.7898349165916443,-0.12617763876914978,0.32057318091392517,0.7898349165916443,-0.18080419301986694,0.3768916428089142,0.7898349165916443,-0.24356834590435028,0.4239712655544281,0.7898349165916443,-0.31292465329170227,0.46065273880958557,0.7898349165916443,-0.3871653079986572,0.4860329329967499,0.7898349165916443,-0.4644622802734375,0.4994868338108063,0.7898349165916443,-0.5429122447967529,0.5006831884384155,0.7898349165916443,-0.6205835342407227,0.489592581987381,0.7898349165916443,-0.695563554763794,0.46648797392845154,0.7898349165916443,-0.9915080666542053,-0.9737810492515564,0.9829481840133667,0.20000000298023224,-14.985985249350206,-14.230151428650831,0.6531079001443074,38675.0
0.3599,0.0097,0,1,0.16701249778270721,0.39238181710243225,0.013723627664148808,0.0746186301112175,0.6603280901908875,0.8004478812217712,0.232294499874115,0.07060907036066055,0.1608808934688568,0.9918451905250549,-0.06823042035102844,0.060928311198949814,0.0887327566742897,-0.7917152480821436,-2.7271216973474535,-0.032886556547115475,-7.2183608515814806,7.641335069227448,9.741690677851958,0.8362217545509338,-0.09239386767148972,0.2679462730884552,0.7867242693901062,0.232294499874115,0.07060907036066055,0.1608808934688568,-0.06823042035102844,0.060928311198949814,0.0887327566742897,0.9918451905250549,-0.7917152643203735,-2.727121591567993,-0.0328865572810173,-0.09239386767148972,0.2679462730884552,0.7867242693901062,-0.13953129947185516,0.33066704869270325,0.7867242693901062,-0.1959000825881958,0.38524165749549866,0.7867242693901062,-0.2601122260093689,0.430326372385025,0.7867242693901062,-0.33058661222457886,0.4648109972476959,0.7867242693901062,-0.40558794140815735,0.4878464639186859,0.7867242693901062,-0.4832693934440613,0.4988655149936676,0.7867242693901062,-0.561718225479126,0.4975968897342682,0.7867242693901062,-0.639002799987793,0.4840717017650604,0.7867242693901062,-0.7132200598716736,0.45862314105033875,0.7867242693901062,-0.9881916046142578,-1.0518096685409546,0.9534989595413208,0.20000000298023224,-14.992992624675104,-14.615075714325416,1.307712570770925,38675.0
0.3798,0.0087,0,1,0.16928038001060486,0.39535290002822876,0.018814120441675186,0.0659652054309845,0.6734872460365295,0.8004478812217712,0.20882073044776917,0.10841131955385208,0.19616523385047913,0.9927250146865845,-0.0728074386715889,0.0309994388371706,0.0907367467880249,-0.6966031129110536,-2.0809796947180303,-0.14716991039476393,-8.008490351307783,4.287458861558473,10.144552217089196,0.836052656173706,-0.10331517457962036,0.2781343460083008,0.781633734703064,0.20882073044776917,0.10841131955385208,0.19616523385047913,-0.0728074386715889,0.0309994388371706,0.0907367467880249,0.9927250146865845,-0.6966031193733215,-2.080979585647583,-0.14716991782188416,-0.10331517457962036,0.2781343460083008,0.781633734703064,-0.15240460634231567,0.33933937549591064,0.781633734703064,-0.2104642540216446,0.392111599445343,0.781633734703064,-0.2760644853115082,0.4351515769958496,0.781633734703064,-0.34758999943733215,0.467399537563324,0.781633734703064,-0.42327961325645447,0.4880613684654236,0.781633734703064,-0.5012695789337158,0.49662840366363525,0.781633734703064,-0.5796395540237427,0.4928896427154541,0.781633734703064,-0.6564598083496094,0.47693711519241333,0.781633734703064,-0.7298387289047241,0.44916367530822754,0.781633734703064,-0.8989986181259155,-1.1136969327926636,1.0064884424209595,0.20000000298023224,-14.996496312337552,-14.807537857162707,2.1134356492453965,38675.0
0.3995,0.0094,0,1,0.1721874475479126,0.39751383662223816,0.023788893595337868,0.05703848600387573,0.6861790418624878,0.8004478812217712,0.2250078022480011,0.1352100819349289,0.22781914472579956,0.9926726222038269,-0.07791107147932053,0.009804489091038704,0.09182986617088318,-0.6252250027957226,-1.7389529785544073,-0.13441666443513337,-8.798905576484156,1.935499948261543,10.421571376558445,0.8365321755409241,-0.11514896154403687,0.28866520524024963,0.7766590118408203,0.2250078022480011,0.1352100819349289,0.22781914472579956,-0.07791107147932053,0.009804489091038704,0.09182986617088318,0.9926726222038269,-0.6252250075340271,-1.7389529943466187,-0.13441666960716248,-0.11514896154403687,0.28866520524024963,0.7766590118408203,-0.1661139279603958,0.34831753373146057,0.7766590118408203,-0.22578312456607819,0.39926275610923767,0.7766590118408203,-0.2926872968673706,0.44024649262428284,0.7766590118408203,-0.36517900228500366,0.4702594578266144,0.7766590118408203,-0.4414733052253723,0.48856279253959656,0.7766590118408203,-0.5196915864944458,0.4947056472301483,0.7766590118408203,-0.5979077816009521,0.48853692412376404,0.7766590118408203,-0.6741960048675537,0.47020837664604187,0.7766590118408203,-0.7466777563095093,0.44017139077186584,0.7766590118408203,-0.8864043354988098,-1.3168001174926758,1.0255240201950073,0.20000000298023224,-14.998248156168776,-14.903768928581353,2.6674739681838924,38675.0
0.4202,0.0097,0,1,0.17633026838302612,0.4000779092311859,0.02965729683637619,0.04742754250764847,0.698967456817627,0.8004478812217712,0.2185608446598053,0.1772034615278244,0.24978581070899963,0.9922954440116882,-0.08233454078435898,-0.008785780519247055,0.09214992076158524,-0.4650345982259386,-1.5721088657381421,-0.11781111434681113,-9.498397704593827,-0.12959956240144402,10.621904405508072,0.8367012739181519,-0.12890273332595825,0.29888954758644104,0.7707905769348145,0.2185608446598053,0.1772034615278244,0.24978581070899963,-0.08233454078435898,-0.008785780519247055,0.09214992076158524,0.9922954440116882,-0.4650346040725708,-1.5721088647842407,-0.11781111359596252,-0.12890273332595825,0.29888954758644104,0.7707905769348145,-0.18174992501735687,0.3568809926509857,0.7707905769348145,-0.24301834404468536,0.4058912694454193,0.7707905769348145,-0.3111993670463562,0.4447137415409088,0.7707905769348145,-0.38461410999298096,0.4723922908306122,0.7707905769348145,-0.4614548683166504,0.48824551701545715,0.7707905769348145,-0.5398296117782593,0.4918830096721649,0.7707905769348145,-0.61780846118927,0.48321524262428284,0.7707905769348145,-0.6934713125228882,0.4624556005001068,0.7707905769348145,-0.7649551033973694,0.4301152527332306,0.7707905769348145,-0.8733264207839966,-1.470094919204712,1.0283421277999878,0.20000000298023224,-14.999124078084389,-14.951884464290677,3.06814002608313,38675.0
0.4399,0.0093,0,1,0.1799449622631073,0.403236985206604,0.038307495415210724,0.03769371286034584,0.7111024856567383,0.8004478812217712,0.19081003963947296,0.180883526802063,0.2915933132171631,0.9918999075889587,-0.08295206725597382,-0.026491740718483925,0.09246525913476944,-0.4581885098802128,-1.2030541271454684,-0.17177179307075244,-9.763219709899671,-2.132694236616782,10.833630836467732,0.8341909646987915,-0.14225125312805176,0.3078655004501343,0.7621403932571411,0.19081003963947296,0.180883526802063,0.2915933132171631,-0.08295206725597382,-0.026491740718483925,0.09246525913476944,0.9918999075889587,-0.4581885039806366,-1.2030540704727173,-0.1717717945575714,-0.14225125312805176,0.3078655004501343,0.7621403932571411,-0.19687694311141968,0.36418479681015015,0.7621403932571411,-0.2596403956413269,0.41126537322998047,0.7621403932571411,-0.32899612188339233,0.4479479193687439,0.7621403932571411,-0.40323638916015625,0.47332924604415894,0.7621403932571411,-0.4805331826210022,0.48678433895111084,0.7621403932571411,-0.5589830875396729,0.487981915473938,0.7621403932571411,-0.6366546154022217,0.47689247131347656,0.7621403932571411,-0.7116349935531616,0.45378899574279785,0.7621403932571411,-0.7820780277252197,0.4192405343055725,0.7621403932571411,-0.9340527653694153,-1.5707963705062866,1.0473159551620483,0.20000000298023224,-14.999562039042194,-14.97594223214534,3.4915928880024416,38675.0
0.4599,0.0091,0,1,0.18231497704982758,0.40764153003692627,0.0411679744720459,0.027450166642665863,0.723084032535553,0.8004478812217712,0.1655883938074112,0.22009488940238953,0.28011319041252136,0.9911943078041077,-0.08573281019926071,-0.04090658575296402,0.09224086999893188,-0.4856568859955081,-1.1517604461280517,-0.13017665398599662,-10.246396512977665,-3.7427355673174283,10.968958975933665,0.836655855178833,-0.1548648178577423,0.3154425024986267,0.7592799067497253,0.1655883938074112,0.22009488940238953,0.28011319041252136,-0.08573281019926071,-0.04090658575296402,0.09224086999893188,0.9911943078041077,-0.48565688729286194,-1.151760458946228,-0.13017664849758148,-0.1548648178577423,0.3154425024986267,0.7592799067497253,-0.21123871207237244,0.3700118064880371,0.7592799067497253,-0.2754550874233246,0.41509050130844116,0.7592799067497253,-0.3459327220916748,0.449568510055542,0.7592799067497253,-0.4209361672401428,0.4725969433784485,0.7592799067497253,-0.4986186623573303,0.4836087226867676,0.7592799067497253,-0.5770673751831055,0.482332706451416,0.7592799067497253,-0.6543506383895874,0.46880030632019043,0.7592799067497253,-0.728565514087677,0.44334477186203003,0.7592799067497253,-0.7978845834732056,0.40659284591674805,0.7592799067497253,-0.8178905248641968,-1.5707963705062866,1.040136456489563,0.20000000298023224,-14.999781019521098,-14.98797111607267,3.7622491669343208,38675.0
0.4798,0.0094,0,1,0.18352551758289337,0.41366592049598694,0.04780419543385506,0.016838431358337402,0.7347319722175598,0.8004478812217712,0.11054746061563492,0.23990601301193237,0.2942422032356262,0.9903163909912109,-0.08946410566568375,-0.05273217707872391,0.09212473779916763,-0.34145463587196034,-1.1094507393109356,-0.11356705922176882,-10.815013402101727,-5.046221625173591,11.10731496922381,0.8350691795349121,-0.16668708622455597,0.3210660517215729,0.7526437044143677,0.11054746061563492,0.23990601301193237,0.2942422032356262,-0.08946410566568375,-0.05273217707872391,0.09212473779916763,0.9903163909912109,-0.3414546251296997,-1.1094506978988647,-0.1135670617222786,-0.16668708622455597,0.3210660517215729,0.7526437044143677,-0.2247524857521057,0.37383195757865906,0.7526437044143677,-0.29035741090774536,0.4168647825717926,0.7526437044143677,-0.3618864417076111,0.4491049349308014,0.7526437044143677,-0.43757832050323486,0.469758540391922,0.7526437044143677,-0.5155692100524902,0.4783170521259308,0.7526437044143677,-0.5939387679100037,0.47456976771354675,0.7526437044143677,-0.6707572340965271,0.4586088955402374,0.7526437044143677,-0.7441331148147583,0.43082746863365173,0.7526437044143677,-0.8122596740722656,0.39190950989723206,0.7526437044143677,-0.825710117816925,-1.5707963705062866,1.0317937135696411,0.20000000298023224,-14.999890509760549,-14.993985558036336,4.038961153514628,38675.0
0.4996,0.0091,0,1,0.18858428299427032,0.4157382845878601,0.05175981670618057,0.006000908557325602,0.7459039688110352,0.8004478812217712,0.0672900602221489,0.25781118869781494,0.2874995172023773,0.9895364046096802,-0.09125734120607376,-0.06440707296133041,0.09132135659456253,-0.3691460184390361,-0.9144676664168933,-0.21241121518644127,-11.160626292485462,-6.361364834112866,11.167586446672479,0.8383793234825134,-0.18258337676525116,0.33016568422317505,0.7486880421638489,0.0672900602221489,0.25781118869781494,0.2874995172023773,-0.09125734120607376,-0.06440707296133041,0.09132135659456253,0.9895364046096802,-0.3691460192203522,-0.9144676923751831,-0.21241120994091034,-0.18258337676525116,0.33016568422317505,0.7486880421638489,-0.24226301908493042,0.3810986280441284,0.7486880421638489,-0.30917561054229736,0.42206859588623047,0.7486880421638489,-0.3816734552383423,0.45206671953201294,0.7486880421638489,-0.4579715132713318,0.4703543782234192,0.7486880421638489,-0.5361910462379456,0.47648119926452637,0.7486880421638489,-0.6144059896469116,0.47029638290405273,0.7486880421638489,-0.6906904578208923,0.45195215940475464,0.7486880421638489,-0.763166069984436,0.42190033197402954,0.7486880421638489,-0.8300482034683228,0.38088077306747437,0.7486880421638489,-0.7887116074562073,-1.5707963705062866,1.0509990453720093,0.20000000298023224,-14.999945254880274,-14.996992779018168,4.159504108411948,38675.0
0.5196,0.0095,0,1,0.19144588708877563,0.4199003279209137,0.057054489850997925,-0.005262591876089573,0.7568115592002869,0.8004478812217712,0.05099448934197426,0.26268088817596436,0.2950894832611084,0.9889662861824036,-0.09334847331047058,-0.07136725634336472,0.09020248800516129,-0.25577381938527705,-0.6630197194587729,-0.22283830644718533,-11.481775094757925,-7.141435904760272,11.141786227533006,0.8395457863807678,-0.19670848548412323,0.33691123127937317,0.7433934211730957,0.05099448934197426,0.26268088817596436,0.2950894832611084,-0.09334847331047058,-0.07136725634336472,0.09020248800516129,0.9889662861824036,-0.2557738125324249,-0.6630197167396545,-0.22283831238746643,-0.19670848548412323,0.33691123127937317,0.7433934211730957,-0.25795578956604004,0.38594791293144226,0.7433934211730957,-0.3261200785636902,0.42479971051216125,0.7433934211730957,-0.3995228707790375,0.45250990986824036,0.7433934211730957,-0.4763568043708801,0.46839621663093567,0.7433934211730957,-0.5547299385070801,0.4720675051212311,0.7433934211730957,-0.6327125430107117,0.46343329548835754,0.7433934211730957,-0.7083843350410461,0.44270625710487366,0.7433934211730957,-0.77988201379776,0.41039666533470154,0.7433934211730957,-0.8454451560974121,0.3673001825809479,0.7433934211730957,-0.8370100259780884,-1.5707963705062866,1.0539108514785767,0.20000000298023224,-14.999972627440137,-14.998496389509084,4.107903670133027,38675.0
0.5397,0.0087,0,1,0.19528499245643616,0.42875367403030396,0.06534191966056824,-0.016831979155540466,0.7673336863517761,0.8004478812217712,0.04834155738353729,0.3281210958957672,0.31305113434791565,0.9883712530136108,-0.09530896693468094,-0.07832647860050201,0.08889053016901016,-0.24176034895306414,-0.6800141493228955,-0.20481433179515168,-11.787209766628369,-7.925603136339416,11.09770945915014,0.8366665244102478,-0.21211697161197662,0.33858001232147217,0.7351059913635254,0.04834155738353729,0.3281210958957672,0.31305113434791565,-0.09530896693468094,-0.07832647860050201,0.08889053016901016,0.9883712530136108,-0.24176034331321716,-0.6800141334533691,-0.20481432974338531,-0.21211697161197662,0.33858001232147217,0.7351059913635254,-0.27486786246299744,0.3856773376464844,0.7351059913635254,-0.3442138433456421,0.4223783612251282,0.7351059913635254,-0.4184473156929016,0.44777947664260864,0.7351059913635254,-0.49574050307273865,0.46125513315200806,0.7351059913635254,-0.5741901397705078,0.46247363090515137,0.7351059913635254,-0.6518645286560059,0.451404869556427,0.7351059913635254,-0.7268511056900024,0.4283214211463928,0.7351059913635254,-0.7973034381866455,0.39379173517227173,0.7351059913635254,-0.8614866733551025,0.3486659526824951,0.7351059913635254,-0.6560391187667847,-1.5707963705062866,1.0529073476791382,0.20000000298023224,-14.999986313720068,-14.999248194754543,4.019750133367256,38675.0
0.5596,0.0083,0,1,0.19550643861293793,0.4350276589393616,0.07187280058860779,-0.028856899589300156,0.7775980830192566,0.8004478812217712,0.006320808548480272,0.35228535532951355,0.3157079517841339,0.9877433776855469,-0.09609194844961166,-0.0863523855805397,0.08758212625980377,-0.1962225247101221,-0.6119678534683354,-0.21010426853691694,-11.971242049291229,-8.844662404273386,11.063379366873036,0.8357721567153931,-0.22436334192752838,0.342570424079895,0.7285751104354858,0.006320808548480272,0.35228535532951355,0.3157079517841339,-0.09609194844961166,-0.0863523855805397,0.08758212625980377,0.9877433776855469,-0.19622252881526947,-0.6119678616523743,-0.21010427176952362,-0.22436334192752838,0.342570424079895,0.7285751104354858,-0.28857189416885376,0.38766026496887207,0.7285751104354858,-0.35904353857040405,0.42215055227279663,0.7285751104354858,-0.4340429902076721,0.44519197940826416,0.7285751104354858,-0.5117235779762268,0.4562172293663025,0.7285751104354858,-0.590172529220581,0.4549548029899597,0.7285751104354858,-0.667458176612854,0.4414358139038086,0.7285751104354858,-0.741677463054657,0.4159930944442749,0.7285751104354858,-0.8110028505325317,0.37925320863723755,0.7285751104354858,-0.8737273216247559,0.33212077617645264,0.7285751104354858,-0.6067873239517212,-1.5707963705062866,1.051505208015442,0.20000000298023224,-14.999993156860034,-14.999624097377271,3.951089948813062,38675.0
0.5799,0.0096,0,1,0.19824665784835815,0.4440479278564453,0.08025164157152176,-0.041252609342336655,0.7875177264213562,0.8004478812217712,-0.044701725244522095,0.3814694583415985,0.3238758146762848,0.987192690372467,-0.09710367769002914,-0.09319364279508591,0.08564083278179169,-0.2547646977139756,-0.41716677434528626,-0.25442100013054403,-12.160671807506297,-9.634829140219251,10.944909211040313,0.8330750465393066,-0.2394992709159851,0.3434697985649109,0.7201962471008301,-0.044701725244522095,0.3814694583415985,0.3238758146762848,-0.09710367769002914,-0.09319364279508591,0.08564083278179169,0.987192690372467,-0.25476470589637756,-0.4171667695045471,-0.2544209957122803,-0.2394992709159851,0.3434697985649109,0.7201962471008301,-0.3051069676876068,0.3864983916282654,0.7201962471008301,-0.37663811445236206,0.4187338948249817,0.7201962471008301,-0.4523313045501709,0.4393826127052307,0.7201962471008301,-0.530322790145874,0.4479360580444336,0.7201962471008301,-0.6086920499801636,0.4441836476325989,0.7201962471008301,-0.6855095624923706,0.4282177686691284,0.7201962471008301,-0.7588835954666138,0.4004315733909607,0.7201962471008301,-0.8270076513290405,0.3615092635154724,0.7201962471008301,-0.8882041573524475,0.3124091625213623,0.7201962471008301,-0.4680213928222656,-1.5707963705062866,1.0613867044448853,0.20000000298023224,-14.999996578430018,-14.999812048688636,3.7141496371476106,38675.0
0.5999,0.0094,0,1,0.19670596718788147,0.4494342505931854,0.08090337365865707,-0.053805552423000336,0.7969289422035217,0.8004478812217712,-0.0719769075512886,0.40464138984680176,0.274956077337265,0.986737072467804,-0.09843481332063675,-0.09775547683238983,0.0842757597565651,-0.14837291019342316,-0.3630553690260249,-0.25761110093180906,-12.362135041084668,-10.155865451984026,10.866124198249269,0.8374084234237671,-0.2505115270614624,0.3474946916103363,0.719544529914856,-0.0719769075512886,0.40464138984680176,0.274956077337265,-0.09843481332063675,-0.09775547683238983,0.0842757597565651,0.986737072467804,-0.14837290346622467,-0.36305537819862366,-0.25761109590530396,-0.2505115270614624,0.3474946916103363,0.719544529914856,-0.31743693351745605,0.3884436786174774,0.719544529914856,-0.3899441957473755,0.41841909289360046,0.719544529914856,-0.4662479758262634,0.4366828501224518,0.719544529914856,-0.5444693565368652,0.4427851736545563,0.719544529914856,-0.6226823925971985,0.4365758001804352,0.719544529914856,-0.6989611387252808,0.41820773482322693,0.719544529914856,-0.7714272737503052,0.38813313841819763,0.719544529914856,-0.83829665184021,0.3470925986766815,0.719544529914856,-0.8979225158691406,0.29609671235084534,0.719544529914856,-0.39533543586730957,-1.5707963705062866,1.060994029045105,0.20000000298023224,-14.999998289215009,-14.999906024344318,3.5565796115655193,38675.0
0.62,0.0093,0,1,0.19806735217571259,0.4577528238296509,0.08895468711853027,-0.06672102957963943,0.805991530418396,0.8004478812217712,-0.10219384729862213,0.44101738929748535,0.28522244095802307,0.9864983558654785,-0.09912211447954178,-0.1012251153588295,0.0821419432759285,-0.13583111922434488,-0.35022182875952845,-0.2405609277771197,-12.465982374733166,-10.569766386655175,10.677271850669687,0.835227906703949,-0.2647883892059326,0.3482387065887451,0.711493194103241,-0.10219384729862213,0.44101738929748535,0.28522244095802307,-0.09912211447954178,-0.1012251153588295,0.0821419432759285,0.9864983558654785,-0.13583111763000488,-0.3502218425273895,-0.24056093394756317,-0.2647883892059326,0.3482387065887451,0.711493194103241,-0.3329724669456482,0.38705575466156006,0.711493194103241,-0.40638941526412964,0.41472846269607544,0.711493194103241,-0.48323148488998413,0.4305756092071533,0.711493194103241,-0.5616064667701721,0.43420684337615967,0.711493194103241,-0.6395846605300903,0.42553281784057617,0.711493194103241,-0.7152458429336548,0.40476715564727783,0.711493194103241,-0.7867270708084106,0.37242114543914795,0.711493194103241,-0.8522681593894958,0.3292912244796753,0.711493194103241,-0.9102553725242615,0.276439368724823,0.711493194103241,-0.285372257232666,-1.5707963705062866,1.0593425035476685,0.20000000298023224,-14.999999144607504,-14.99995301217216,3.1788749164063823,38675.0
0.6402,0.009,0,1,0.19562730193138123,0.4665850102901459,0.09529055655002594,-0.079678975045681,0.8144919276237488,0.8004478812217712,-0.14264725148677826,0.4674178957939148,0.28540006279945374,0.9863157272338867,-0.09901557117700577,-0.1047993153333664,0.0799517035484314,-0.09035271676322525,-0.22507055142813293,-0.2671500446137685,-12.47726616416769,-11.005165818923345,10.475340110168915,0.8331144452095032,-0.2753062844276428,0.3479069173336029,0.7051573395729065,-0.14264725148677826,0.4674178957939148,0.28540006279945374,-0.09901557117700577,-0.1047993153333664,0.0799517035484314,0.9863157272338867,-0.09035271406173706,-0.2250705510377884,-0.26715004444122314,-0.2753062844276428,0.3479069173336029,0.7051573395729065,-0.34466058015823364,0.384592205286026,0.7051573395729065,-0.41889989376068115,0.40997639298439026,0.7051573395729065,-0.49619612097740173,0.4234345257282257,0.7051573395729065,-0.57464599609375,0.4246351420879364,0.7051573395729065,-0.6523178815841675,0.41354867815971375,0.7051573395729065,-0.7272992134094238,0.3904481828212738,0.7051573395729065,-0.7977436780929565,0.35590240359306335,0.7051573395729065,-0.8619166612625122,0.3107620179653168,0.7051573395729065,-0.9182380437850952,0.25613853335380554,0.7051573395729065,-0.17124617099761963,-1.5707963705062866,1.0653961896896362,0.20000000298023224,-12.405841000273355,-14.99997650608608,2.77501143540483,38675.0
0.6599,0.009,0,1,0.19122014939785004,0.47797879576683044,0.10344245284795761,-0.0930076390504837,0.8226537704467773,0.8004478812217712,-0.18393674492835999,0.5121243596076965,0.2967725396156311,0.986102819442749,-0.09990347921848297,-0.10731952637434006,0.0781092420220375,-0.14706261829234737,-0.30663720014956414,-0.2530671489008886,-12.593148385045984,-11.306033428129659,10.309401390927954,0.8278906345367432,-0.28422778844833374,0.3446749746799469,0.6970054507255554,-0.18393674492835999,0.5121243596076965,0.2967725396156311,-0.09990347921848297,-0.10731952637434006,0.0781092420220375,0.986102819442749,-0.14706261456012726,-0.3066371977329254,-0.25306713581085205,-0.28422778844833374,0.3446749746799469,0.6970054507255554,-0.35469478368759155,0.37917467951774597,0.6970054507255554,-0.4296911954879761,0.40222617983818054,0.6970054507255554,-0.5073702931404114,0.41326186060905457,0.6970054507255554,-0.5858194231987,0.41200998425483704,0.6970054507255554,-0.6631067991256714,0.39850136637687683,0.6970054507255554,-0.7373295426368713,0.3730686604976654,0.6970054507255554,-0.8066598773002625,0.336338073015213,0.6970054507255554,-0.8693906664848328,0.28921404480934143,0.6970054507255554,-0.9239773750305176,0.23285695910453796,0.6970054507255554,0.0364001989364624,-1.5707963705062866,1.073525071144104,0.20000000298023224,-5.160131613888736,-14.999988253043039,2.443133996922929,38675.0
0.6801,0.0098,0,1,0.19283635914325714,0.4849172532558441,0.10133485496044159,-0.10679022967815399,0.8305078148841858,0.8004478812217712,-0.20154747366905212,0.5304777026176453,0.2440219670534134,0.9861367344856262,-0.09900452196598053,-0.10924449563026428,0.0761319175362587,0.01305603905319418,-0.13288210940313766,-0.2765149007842208,-12.490918284183449,-11.559486088951271,10.098489779772445,0.8354447484016418,-0.29962658882141113,0.3455905616283417,0.6991130113601685,-0.20154747366905212,0.5304777026176453,0.2440219670534134,-0.09900452196598053,-0.10924449563026428,0.0761319175362587,0.9861367344856262,0.01305603887885809,-0.13288210332393646,-0.2765148878097534,-0.29962658882141113,0.3455905616283417,0.6991130113601685,-0.3711525499820709,0.37783750891685486,0.6991130113601685,-0.4468424320220947,0.3984983265399933,0.6991130113601685,-0.524832546710968,0.407064288854599,0.6991130113601685,-0.6032024621963501,0.4033243954181671,0.6991130113601685,-0.6800224781036377,0.3873707950115204,0.6991130113601685,-0.753400981426239,0.3595963418483734,0.6991130113601685,-0.8215312361717224,0.32068493962287903,0.6991130113601685,-0.882735550403595,0.2715946137905121,0.6991130113601685,-0.9355069994926453,0.21353426575660706,0.6991130113601685,0.11493003368377686,-1.5707963705062866,1.0754934549331665,0.20000000298023224,0.7124371277440336,-14.99999412652152,2.0213107746118952,38675.0
0.6996,0.0096,0,1,0.1909424215555191,0.4943821430206299,0.10455406457185745,-0.12055841088294983,0.8377901315689087,0.8004478812217712,-0.23304533958435059,0.5510551333427429,0.2339547872543335,0.9862624406814575,-0.09667210280895233,-0.11134828627109528,0.07443466782569885,0.5855171377845867,-0.25199351215217997,-0.21820948280127542,-12.226277223642692,-11.843885596214623,9.904990854820841,0.8361997604370117,-0.3115008473396301,0.3434079885482788,0.6958938241004944,-0.23304533958435059,0.5510551333427429,0.2339547872543335,-0.09667210280895233,-0.11134828627109528,0.07443466782569885,0.9862624406814575,0.5855171084403992,-0.2519935071468353,-0.21820949018001556,-0.3115008473396301,0.3434079885482788,0.6958938241004944,-0.38399648666381836,0.37341147661209106,0.6958938241004944,-0.460293173789978,0.3917047381401062,0.6958938241004944,-0.5385122299194336,0.3978373408317566,0.6958938241004944,-0.6167276501655579,0.39165830612182617,0.6958938241004944,-0.6930134892463684,0.37331974506378174,0.6958938241004944,-0.7654913067817688,0.34327322244644165,0.6958938241004944,-0.8323764801025391,0.30225861072540283,0.6958938241004944,-0.8920221328735352,0.2512857913970947,0.6958938241004944,-0.9429595470428467,0.1916099190711975,0.6958938241004944,0.021193742752075195,-1.5707963705062866,1.0493358373641968,0.20000000298023224,0.9633745697619602,-14.99999706326076,1.634312924708669,38675.0
0.7196,0.0096,0,1,0.18454773724079132,0.5069619417190552,0.11577027291059494,-0.13468341529369354,0.8447043895721436,0.8004478812217712,-0.28180867433547974,0.5949850082397461,0.2568216323852539,0.9871676564216614,-0.08796752244234085,-0.1116158738732338,0.07281187921762466,1.3366824958979384,-0.21794895906763842,-0.24244151898087915,-11.19563118228381,-11.979224502670428,9.615160582979058,0.8275033831596375,-0.31923115253448486,0.3377424478530884,0.6846776008605957,-0.28180867433547974,0.5949850082397461,0.2568216323852539,-0.08796752244234085,-0.1116158738732338,0.07281187921762466,0.9871676564216614,1.3366824388504028,-0.21794895827770233,-0.24244152009487152,-0.31923115253448486,0.3377424478530884,0.6846776008605957,-0.3926345407962799,0.3654511570930481,0.6846776008605957,-0.46946877241134644,0.38133591413497925,0.6846776008605957,-0.5478420257568359,0.38500553369522095,0.6846776008605957,-0.6258243918418884,0.37636977434158325,0.6846776008605957,-0.7014957666397095,0.35564112663269043,0.6846776008605957,-0.7729927897453308,0.3233301639556885,0.6846776008605957,-0.8385550379753113,0.280232310295105,0.6846776008605957,-0.8965681195259094,0.22740894556045532,0.6846776008605957,-0.945603609085083,0.16616064310073853,0.6846776008605957,-0.0474475622177124,-1.5707963705062866,1.032788872718811,0.20000000298023224,-0.8775852467486724,-14.99999853163038,1.0546523810251163,38675.0
0.7395,0.0055,0,1,0.1830032914876938,0.5166807174682617,0.11537639051675797,-0.14887836575508118,0.8511102199554443,0.8004478812217712,-0.30626311898231506,0.6173064708709717,0.2253233939409256,0.9883111715316772,-0.07328765094280243,-0.11247604340314865,0.07222865521907806,1.7266584953820565,-0.22235652396123318,-0.20951109933837223,-9.488381620279771,-12.224089496312637,9.378140809417626,0.831451416015625,-0.33188164234161377,0.3344295024871826,0.6850714683532715,-0.30626311898231506,0.6173064708709717,0.2253233939409256,-0.07328765094280243,-0.11247604340314865,0.07222865521907806,0.9883111715316772,1.7266584634780884,-0.22235652804374695,-0.20951110124588013,-0.33188164234161377,0.3344295024871826,0.6850714683532715,-0.4061123728752136,0.3598387837409973,0.6850714683532715,-0.48340409994125366,0.3733229637145996,0.6850714683532715,-0.5618535876274109,0.3745500445365906,0.6850714683532715,-0.6395291686058044,0.3634898066520691,0.6850714683532715,-0.7145183086395264,0.3404146432876587,0.6850714683532715,-0.7849743962287903,0.3058926463127136,0.6850714683532715,-0.8491626381874084,0.2607739567756653,0.6850714683532715,-0.9055024981498718,0.20616942644119263,0.6850714683532715,-0.952606737613678,0.14342373609542847,0.6850714683532715,-0.09421205520629883,-1.5707963705062866,1.0176888704299927,0.20000000298023224,-3.1377691946615545,-14.999999265815191,0.580612833902245,38675.0
0.76,0.0089,0,1,0.179206982254982,0.5294460654258728,0.12520959973335266,-0.16361254453659058,0.8572080135345459,0.8004478812217712,-0.3412167727947235,0.6338080167770386,0.23678411543369293,0.9894402027130127,-0.055813487619161606,-0.11270999163389206,0.07202329486608505,1.5364880208938962,-0.15793638824692496,-0.23131478201225766,-7.453254922267256,-12.415518586139518,9.138478347485842,0.8251665234565735,-0.3428195118904114,0.3277619481086731,0.6752382516860962,-0.3412167727947235,0.6338080167770386,0.23678411543369293,-0.055813487619161606,-0.11270999163389206,0.07202329486608505,0.9894402027130127,1.5364880561828613,-0.15793639421463013,-0.2313147783279419,-0.3428195118904114,0.3277619481086731,0.6752382516860962,-0.4178227186203003,0.35079121589660645,0.6752382516860962,-0.49550509452819824,0.3618038296699524,0.6752382516860962,-0.5739538669586182,0.36052870750427246,0.6752382516860962,-0.6512372493743896,0.3469972014427185,0.6752382516860962,-0.7254524230957031,0.3215424418449402,0.6752382516860962,-0.7947718501091003,0.2847912907600403,0.6752382516860962,-0.8574886918067932,0.23764872550964355,0.6752382516860962,-0.9120586514472961,0.18127542734146118,0.6752382516860962,-0.9571380615234375,0.11705952882766724,0.6752382516860962,-0.0015232563018798828,-1.5707963705062866,1.0304301977157593,0.20000000298023224,-1.6125226759379887,-14.999999632907596,0.10128791003869549,38675.0
0.7798,0.0094,0,1,0.17080126702785492,0.5415089130401611,0.128106489777565,-0.17816881835460663,0.8627017736434937,0.8004478812217712,-0.3841603100299835,0.6569172143936157,0.22147810459136963,0.9901034832000732,-0.04108836501836777,-0.113299660384655,0.07188868522644043,0.9184004895566679,-0.12668205400359464,-0.2028900148152445,-5.743216650291791,-12.617963350032792,8.941080579154383,0.8227927684783936,-0.34897008538246155,0.3211928606033325,0.6723414063453674,-0.3841603100299835,0.6569172143936157,0.22147810459136963,-0.04108836501836777,-0.113299660384655,0.07188868522644043,0.9901034832000732,0.9184004664421082,-0.12668205797672272,-0.20289000868797302,-0.34897008538246155,0.3211928606033325,0.6723414063453674,-0.4246535301208496,0.34187740087509155,0.6723414063453674,-0.5026409029960632,0.3504677414894104,0.6723414063453674,-0.5810120105743408,0.346752405166626,0.6723414063453674,-0.6578369736671448,0.3308229446411133,0.6723414063453674,-0.7312242388725281,0.30307143926620483,0.6723414063453674,-0.7993666529655457,0.26418131589889526,0.6723414063453674,-0.860586404800415,0.21511024236679077,0.6723414063453674,-0.913375973701477,0.15706640481948853,0.6723414063453674,-0.9564356207847595,0.09147900342941284,0.6723414063453674,0.2929980754852295,-1.5707963705062866,1.0606156587600708,0.20000000298023224,6.693738662031006,-14.999999816453798,-0.29350762662421365,38675.0
0.7997,0.0099,0,1,0.1656232327222824,0.5528258085250854,0.13285401463508606,-0.19311466813087463,0.8678132891654968,0.8004478812217712,-0.41679519414901733,0.667464554309845,0.21003232896327972,0.99056476354599,-0.032654765993356705,-0.11291811615228653,0.07044555991888046,0.4878648795657792,-0.15682756448231366,-0.18503909569979554,-4.73859247907823,-12.656450088411669,8.661449173321518,0.820726215839386,-0.35873788595199585,0.3149874806404114,0.6675938367843628,-0.41679519414901733,0.667464554309845,0.21003232896327972,-0.032654765993356705,-0.11291811615228653,0.07044555991888046,0.99056476354599,0.4878648817539215,-0.15682756900787354,-0.18503910303115845,-0.35873788595199585,0.3149874806404114,0.6675938367843628,-0.43503689765930176,0.3332710266113281,0.6675938367843628,-0.5132567882537842,0.339393675327301,0.6675938367843628,-0.5914713740348816,0.33320462703704834,0.6675938367843628,-0.6677548885345459,0.3148563504219055,0.6675938367843628,-0.7402288913726807,0.28480064868927,0.6675938367843628,-0.8071088790893555,0.24377745389938354,0.6675938367843628,-0.8667479753494263,0.19279706478118896,0.6675938367843628,-0.9176778197288513,0.13311469554901123,0.6675938367843628,-0.9586441516876221,0.0661998987197876,0.6675938367843628,0.502576470375061,-1.5707963705062866,1.0819305181503296,0.20000000298023224,10.846869331015503,-14.999999908226899,-0.8527704382899608,38675.0
0.8204,0.0091,0,1,0.15700936317443848,0.5660141110420227,0.13800044357776642,-0.20809727907180786,0.8724161386489868,0.8004478812217712,-0.4515593647956848,0.6653429269790649,0.21194016933441162,0.9908568263053894,-0.025367598980665207,-0.11282380670309067,0.06948450952768326,0.8399521528003672,-0.025049447703122323,-0.2002417674272697,-3.8765890178037625,-12.71250822273143,8.454657658057565,0.8161015510559082,-0.36510664224624634,0.3064020276069641,0.662447452545166,-0.4515593647956848,0.6653429269790649,0.21194016933441162,-0.025367598980665207,-0.11282380670309067,0.06948450952768326,0.9908568263053894,0.8399521708488464,-0.025049448013305664,-0.20024177432060242,-0.36510664224624634,0.3064020276069641,0.662447452545166,-0.4419412612915039,0.32228511571884155,0.662447452545166,-0.5203145742416382,0.32595306634902954,0.662447452545166,-0.5982967615127563,0.3173155188560486,0.662447452545166,-0.6739676594734192,0.2965852618217468,0.662447452545166,-0.745464026927948,0.26427268981933594,0.662447452545166,-0.8110253214836121,0.2211734652519226,0.662447452545166,-0.8690372705459595,0.1683487892150879,0.662447452545166,-0.9180713891983032,0.10709941387176514,0.662447452545166,-0.9569202661514282,0.038933515548706055,0.662447452545166,0.49444806575775146,-1.5707963705062866,1.0759981870651245,0.20000000298023224,12.923434665507752,-14.999999954113449,-1.2663534688178606,38675.0
0.8401,0.0088,0,1,0.14618156850337982,0.5806102156639099,0.14998063445091248,-0.22348979115486145,0.8766170144081116,0.8004478812217712,-0.5012750625610352,0.6813061833381653,0.27035054564476013,0.9912117719650269,-0.014369415119290352,-0.11201605200767517,0.0688704177737236,1.6231151916739393,-0.04965519196269143,-0.18563452858526683,-2.5802871288973317,-12.713966973319978,8.236660860082933,0.8046021461486816,-0.3696713447570801,0.29600679874420166,0.6504672765731812,-0.5012750625610352,0.6813061833381653,0.27035054564476013,-0.014369415119290352,-0.11201605200767517,0.0688704177737236,0.9912117719650269,1.6231151819229126,-0.04965519160032272,-0.1856345236301422,-0.3696713447570801,0.29600679874420166,0.6504672765731812,-0.44697362184524536,0.30943024158477783,0.6504672765731812,-0.525424063205719,0.31059569120407104,0.6504672765731812,-0.6030910015106201,0.29947441816329956,0.6504672765731812,-0.6780619025230408,0.2763403058052063,0.6504672765731812,-0.7484908699989319,0.2417629361152649,0.6504672765731812,-0.8126436471939087,0.1965937614440918,0.6504672765731812,-0.868940532207489,0.1419450044631958,0.6504672765731812,-0.9159954190254211,0.07916229963302612,0.6504672765731812,-0.9526495933532715,0.009791553020477295,0.6504672765731812,0.36200034618377686,-1.5707963705062866,1.055573582649231,0.20000000298023224,13.961717332753876,-14.999999977056724,-1.702347064767125,38675.0
0.8599,0.0099,0,1,0.14494207501411438,0.5909779667854309,0.1465587317943573,-0.238633394241333,0.8802412152290344,0.8004478812217712,-0.4959932863712311,0.6760532259941101,0.20905634760856628,0.9916689395904541,0.003448274452239275,-0.10902248322963715,0.06850510835647583,2.069265780663317,-0.1580356908660713,-0.10650368189822776,-0.47528606013964375,-12.51533273236663,7.955601222430004,0.8114027380943298,-0.3835754692554474,0.2892632484436035,0.6538891792297363,-0.4959932863712311,0.6760532259941101,0.20905634760856628,0.003448274452239275,-0.10902248322963715,0.06850510835647583,0.9916689395904541,2.069265842437744,-0.15803569555282593,-0.1065036803483963,-0.3835754692554474,0.2892632484436035,0.6538891792297363,-0.4612582325935364,0.300273060798645,0.6538891792297363,-0.5397069454193115,0.29899507761001587,0.6538891792297363,-0.6169898509979248,0.28546077013015747,0.6538891792297363,-0.6912040710449219,0.26000338792800903,0.6538891792297363,-0.7605221271514893,0.22324973344802856,0.6538891792297363,-0.8232372999191284,0.1761048436164856,0.6538891792297363,-0.877805233001709,0.11972957849502563,0.6538891792297363,-0.9228823184967041,0.055512070655822754,0.6538891792297363,-0.9573585987091064,-0.014966368675231934,0.6538891792297363,0.1979597806930542,-1.5707963705062866,1.0280627012252808,0.20000000298023224,12.651988639900619,-14.999999988528362,-2.2644663400730103,38675.0
0.8798,0.0092,1,1,0.135586678981781,0.606224000453949,0.16019181907176971,-0.2539604902267456,0.883406937122345,0.8004478812217712,-0.5314891934394836,0.6753620505332947,0.2836311459541321,0.9914461374282837,0.0253248680382967,-0.10760863870382309,0.06936559826135635,2.137451359842888,-0.16936948860944645,-0.10001304233424345,2.0715952734420666,-12.526414778005337,7.7768465147050385,0.7990652322769165,-0.3895471692085266,0.277182936668396,0.6402560472488403,-0.5314891934394836,0.6753620505332947,0.2836311459541321,0.0253248680382967,-0.10760863870382309,0.06936559826135635,0.9914461374282837,2.137451410293579,-0.16936948895454407,-0.10001304000616074,-0.3895471692085266,0.277182936668396,0.6402560472488403,-0.46753647923469543,0.28575611114501953,0.6402560472488403,-0.5459067225456238,0.28202348947525024,0.6402560472488403,-0.6227282285690308,0.26607704162597656,0.6402560472488403,-0.6961093544960022,0.23830938339233398,0.6402560472488403,-0.7642431855201721,0.1994042992591858,0.6402560472488403,-0.8254520893096924,0.15031969547271729,0.6402560472488403,-0.8782289028167725,0.09226417541503906,0.6402560472488403,-0.9212740659713745,0.026667356491088867,0.6402560472488403,-0.9535276293754578,-0.044855594635009766,0.6402560472488403,0.17525207996368408,-1.5707963705062866,1.0303376913070679,0.20000000298023224,11.346596586354467,-14.999999994264181,-2.621975755522941,38675.0
0.8999,0.0095,1,1,0.1304997056722641,0.6207597851753235,0.1596602350473404,-0.2696055471897125,0.8861271142959595,0.8004478812217712,-0.5364699959754944,0.6703996658325195,0.2333069145679474,0.99083411693573,0.0455152653157711,-0.10632377862930298,0.0697806254029274,1.718240243176316,-0.019646605414705302,-0.12032089400285861,4.427516075694582,-12.535860653577638,7.570387692659925,0.8006952404975891,-0.40010523796081543,0.265367329120636,0.640787661075592,-0.5364699959754944,0.6703996658325195,0.2333069145679474,0.0455152653157711,-0.10632377862930298,0.0697806254029274,0.99083411693573,1.7182402610778809,-0.019646605476737022,-0.1203208938241005,-0.40010523796081543,0.265367329120636,0.640787661075592,-0.4783274531364441,0.27145957946777344,0.640787661075592,-0.5565396547317505,0.2652401924133301,0.640787661075592,-0.6328160166740417,0.2468622326850891,0.640787661075592,-0.7052783370018005,0.21677833795547485,0.640787661075592,-0.7721424102783203,0.17572921514511108,0.640787661075592,-0.8317617177963257,0.12472563982009888,0.640787661075592,-0.8826683163642883,0.06502348184585571,0.640787661075592,-0.9236087203025818,-0.0019071698188781738,0.640787661075592,-0.9535747766494751,-0.07441830635070801,0.640787661075592,0.3613330125808716,-1.5707963705062866,1.0484892129898071,0.20000000298023224,13.173298293177233,-14.99999999713209,-3.034893399613133,38675.0
0.9203,0.0097,1,1,0.11525087058544159,0.6255966424942017,0.15810319781303406,-0.2850522994995117,0.8883143663406372,0.8004478812217712,-0.5746512413024902,0.6136347055435181,0.193590447306633,0.9898508191108704,0.0641314834356308,-0.10575301945209503,0.06997688859701157,1.1423605527445082,0.04748347563989428,-0.09071181906908721,6.5997936915546385,-12.611250657677852,7.357428128463883,0.8011678457260132,-0.4003031849861145,0.26271772384643555,0.6423447132110596,-0.5746512413024902,0.6136347055435181,0.193590447306633,0.0641314834356308,-0.10575301945209503,0.06997688859701157,0.9898508191108704,1.1423605680465698,0.047483474016189575,-0.0907118171453476,-0.4003031849861145,0.26271772384643555,0.6423447132110596,-0.47867733240127563,0.2663666605949402,0.6423447132110596,-0.5566574335098267,0.25771021842956543,0.6423447132110596,-0.6323233246803284,0.23696160316467285,0.6423447132110596,-0.7038118243217468,0.20463168621063232,0.6423447132110596,-0.7693626880645752,0.1615164875984192,0.6423447132110596,-0.8273618221282959,0.10867774486541748,0.6423447132110596,-0.8763810396194458,0.047416508197784424,0.6423447132110596,-0.915213406085968,-0.020758867263793945,0.6423447132110596,-0.942902684211731,-0.09416955709457397,0.6423447132110596,0.3679896593093872,-1.5707963705062866,1.0662387609481812,0.20000000298023224,14.086649146588616,-14.999999998566045,-3.4608125280052495,38675.0
0.9401,0.0093,1,1,0.10642515122890472,0.6376860737800598,0.16459064185619354,-0.3006463944911957,0.8900268077850342,0.8004478812217712,-0.5972005128860474,0.5806261301040649,0.20819252729415894,0.9892130494117737,0.07608812302350998,-0.10401469469070435,0.0696217492222786,0.9732577464287195,-0.05217811265424278,-0.026518973750844242,8.010394279066277,-12.49651103721857,7.173319464230399,0.7960511445999146,-0.4070715308189392,0.25234073400497437,0.6358572244644165,-0.5972005128860474,0.5806261301040649,0.20819252729415894,0.07608812302350998,-0.10401469469070435,0.0696217492222786,0.9892130494117737,0.9732577204704285,-0.05217811092734337,-0.02651897445321083,-0.4070715308189392,0.25234073400497437,0.6358572244644165,-0.4855216145515442,0.2535291314125061,0.6358572244644165,-0.5631917715072632,0.24243056774139404,0.6358572244644165,-0.638169527053833,0.21931838989257812,0.6358572244644165,-0.7086085677146912,0.184761643409729,0.6358572244644165,-0.7727745175361633,0.13961130380630493,0.6358572244644165,-0.8290874361991882,0.08497899770736694,0.6358572244644165,-0.8761606812477112,0.02221006155014038,0.6358572244644165,-0.9128351807594299,-0.04714995622634888,0.6358572244644165,-0.9382078051567078,-0.12139320373535156,0.6358572244644165,0.3600674867630005,-1.5707963705062866,1.06489098072052,0.20000000298023224,14.543324573294308,-14.999999999283023,-3.8290298564722005,38675.0
0.96,0.0093,1,1,0.09604854136705399,0.649351954460144,0.16661740839481354,-0.3161851763725281,0.8912428617477417,0.8004478812217712,-0.6221774220466614,0.5522215962409973,0.19501946866512299,0.988595187664032,0.08505827933549881,-0.10311427712440491,0.06935463100671768,0.790709771612584,0.04270897708235703,-0.05941997586627879,9.066585039035026,-12.455126816413067,7.034566950048414,0.7938444018363953,-0.41223371028900146,0.24189090728759766,0.6338304877281189,-0.6221774220466614,0.5522215962409973,0.19501946866512299,0.08505827933549881,-0.10311427712440491,0.06935463100671768,0.988595187664032,0.7907097935676575,0.042708978056907654,-0.05941997468471527,-0.41223371028900146,0.24189090728759766,0.6338304877281189,-0.4906827211380005,0.2406335473060608,0.6338304877281189,-0.5679692029953003,0.22711950540542603,0.6338304877281189,-0.6421900987625122,0.20168155431747437,0.6338304877281189,-0.711517870426178,0.16494613885879517,0.6338304877281189,-0.7742453813552856,0.1178176999092102,0.6338304877281189,-0.8288280963897705,0.06145673990249634,0.6338304877281189,-0.8739220499992371,-0.0027489066123962402,0.6338304877281189,-0.9084168076515198,-0.07321834564208984,0.6338304877281189,-0.9314630627632141,-0.1482163667678833,0.6338304877281189,0.4495145082473755,-1.5707963705062866,1.0818573236465454,0.20000000298023224,14.771662286647153,-14.999999999641512,-4.106534884836148,38675.0
0.9799,0.0092,1,1,0.0810525193810463,0.657242476940155,0.17343801259994507,-0.33193203806877136,0.8919795155525208,0.8004478812217712,-0.6561470031738281,0.5107581615447998,0.21014496684074402,0.9881044030189514,0.09424314647912979,-0.10078472644090652,0.06788482517004013,0.8268933423951637,-0.05514588943875664,-0.041935807322447394,10.17020659809893,-12.237649770848527,6.767208653472776,0.7866378426551819,-0.41298454999923706,0.23473703861236572,0.6270098686218262,-0.6561470031738281,0.5107581615447998,0.21014496684074402,0.09424314647912979,-0.10078472644090652,0.06788482517004013,0.9881044030189514,0.8268933296203613,-0.05514588952064514,-0.04193580895662308,-0.41298454999923706,0.23473703861236572,0.6270098686218262,-0.49135494232177734,0.23100727796554565,0.6270098686218262,-0.5681770443916321,0.21506351232528687,0.6270098686218262,-0.6415591239929199,0.1872984766960144,0.6270098686218262,-0.7096943855285645,0.14839577674865723,0.6270098686218262,-0.7709050178527832,0.09931337833404541,0.6270098686218262,-0.8236838579177856,0.041259765625,0.6270098686218262,-0.8667313456535339,-0.02433556318283081,0.6270098686218262,-0.8989874720573425,-0.09585738182067871,0.6270098686218262,-0.9196580052375793,-0.1715446412563324,0.6270098686218262,0.35429859161376953,-1.5707963705062866,1.0859373807907104,0.20000000298023224,14.885831143323577,-14.999999999820755,-4.641251477987448,38675.0
1.0,0.0101,1,1,0.0691394954919815,0.6655005216598511,0.17470166087150574,-0.3478614389896393,0.8922193050384521,0.8004478812217712,-0.6786054372787476,0.46924862265586853,0.1968732625246048,0.987315833568573,0.10181959718465805,-0.1010160744190216,0.06807371228933334,0.8355295077570999,-0.21136034846505283,0.04535843537638998,11.052974033659192,-12.317688689551629,6.692012738165929,0.7853977084159851,-0.417000949382782,0.22671878337860107,0.6257462501525879,-0.6786054372787476,0.46924862265586853,0.1968732625246048,0.10181959718465805,-0.1010160744190216,0.06807371228933334,0.987315833568573,0.8355295062065125,-0.21136035025119781,0.045358434319496155,-0.417000949382782,0.22671878337860107,0.6257462501525879,-0.49521273374557495,0.22049415111541748,0.6257462501525879,-0.5714878439903259,0.20211106538772583,0.6257462501525879,-0.6439481377601624,0.17202228307724,0.6257462501525879,-0.7108094096183777,0.13096868991851807,0.6257462501525879,-0.7704253196716309,0.07996106147766113,0.6257462501525879,-0.8213278651237488,0.02025550603866577,0.6257462501525879,-0.8622637391090393,-0.04667794704437256,0.6257462501525879,-0.892224907875061,-0.11919111013412476,0.6257462501525879,-0.9104737043380737,-0.19549843668937683,0.6257462501525879,0.28571438789367676,-1.5707963705062866,1.0796221494674683,0.20000000298023224,14.94291557166179,-14.999999999910377,-4.791643308601145,38675.0
1.0197,0.0093,1,1,0.055127907544374466,0.6748007535934448,0.18287865817546844,-0.3632563054561615,0.8919687271118164,0.8004478812217712,-0.6986663341522217,0.4238985776901245,0.19874568283557892,0.9865624308586121,0.10994793474674225,-0.10034031420946121,0.06734862923622131,0.7560077173444156,-0.21289737524343524,0.07380564802796548,12.016518470505947,-12.286117942336281,6.512529838933262,0.7769163250923157,-0.41838422417640686,0.21716797351837158,0.6175692081451416,-0.6986663341522217,0.4238985776901245,0.19874568283557892,0.10994793474674225,-0.10034031420946121,0.06734862923622131,0.9865624308586121,0.756007730960846,-0.2128973752260208,0.07380564510822296,-0.41838422417640686,0.21716797351837158,0.6175692081451416,-0.49636727571487427,0.20853811502456665,0.6175692081451416,-0.5720402002334595,0.18781524896621704,0.6175692081451416,-0.6435397267341614,0.15550965070724487,0.6175692081451416,-0.7091052532196045,0.11241680383682251,0.6175692081451416,-0.7671223282814026,0.05959784984588623,0.6175692081451416,-0.8161624073982239,-0.0016467571258544922,0.6175692081451416,-0.8550180196762085,-0.06980884075164795,0.6175692081451416,-0.8827322721481323,-0.14321011304855347,0.6175692081451416,-0.8986228704452515,-0.22004318237304688,0.6175692081451416,0.2448030710220337,-1.5707963705062866,1.0781499147415161,0.20000000298023224,14.484549176532832,-14.99999999995519,-5.150609107066454,38675.0
1.0411,0.0098,1,1,0.04280547797679901,0.6827408671379089,0.1836613267660141,-0.37909796833992004,0.8912150859832764,0.8004478812217712,-0.7180049419403076,0.3833521008491516,0.18526217341423035,0.9858897924423218,0.11674171686172485,-0.09957379847764969,0.06690139323472977,0.5322418984685829,0.020512070351143007,0.028061000198054364,12.821107063719927,-12.237117844865734,6.384056853691094,0.7758154273033142,-0.42190343141555786,0.20847421884536743,0.616786539554596,-0.7180049419403076,0.3833521008491516,0.18526217341423035,0.11674171686172485,-0.09957379847764969,0.06690139323472977,0.9858897924423218,0.5322418808937073,0.020512070506811142,0.028061000630259514,-0.42190343141555786,0.20847421884536743,0.616786539554596,-0.49957358837127686,0.19737547636032104,0.616786539554596,-0.5745512247085571,0.17426306009292603,0.616786539554596,-0.6449902057647705,0.1397060751914978,0.616786539554596,-0.7091560363769531,0.0945555567741394,0.616786539554596,-0.7654687762260437,0.03992307186126709,0.616786539554596,-0.8125418424606323,-0.022845983505249023,0.616786539554596,-0.8492160439491272,-0.09220612049102783,0.616786539554596,-0.8745884895324707,-0.1664494276046753,0.616786539554596,-0.8880343437194824,-0.24374783039093018,0.616786539554596,0.3406001329421997,-1.5707963705062866,1.091910481452942,0.20000000298023224,14.742274588266415,-14.999999999977595,-5.407555077550824,38675.0
1.0601,0.0098,1,1,0.03160141408443451,0.6935381889343262,0.19585520029067993,-0.3948659300804138,0.8899634480476379,0.8004478812217712,-0.7425583004951477,0.3431812524795532,0.23379692435264587,0.9855542182922363,0.12118873000144958,-0.0978575274348259,0.06646880507469177,0.44318525898411515,-0.07916224702076678,0.05079805009379611,13.354062816118262,-12.06365876256407,6.2992827275952665,0.7654995918273926,-0.4264673590660095,0.19642525911331177,0.6045926809310913,-0.7425583004951477,0.3431812524795532,0.23379692435264587,0.12118873000144958,-0.0978575274348259,0.06646880507469177,0.9855542182922363,0.4431852698326111,-0.07916224747896194,0.05079805105924606,-0.4264673590660095,0.19642525911331177,0.6045926809310913,-0.5037475228309631,0.18287521600723267,0.6045926809310913,-0.5779566168785095,0.15740275382995605,0.6045926809310913,-0.64726722240448,0.1206350326538086,0.6045926809310913,-0.7099727988243103,0.07347738742828369,0.6045926809310913,-0.764529287815094,0.017091035842895508,0.6045926809310913,-0.8095933198928833,-0.04713559150695801,0.6045926809310913,-0.8440552949905396,-0.11762106418609619,0.6045926809310913,-0.8670666217803955,-0.19262981414794922,0.6045926809310913,-0.8780606389045715,-0.2703148126602173,0.6045926809310913,0.3326832056045532,-1.5707963705062866,1.0929683446884155,0.20000000298023224,14.871137294133208,-14.999999999988798,-5.577103329742484,38675.0
1.08,0.0096,1,1,0.012690621428191662,0.6964161992073059,0.19651810824871063,-0.4105091392993927,0.8882234692573547,0.8004478812217712,-0.7727603912353516,0.28547024726867676,0.2053864598274231,0.9849255084991455,0.1256958544254303,-0.09805800765752792,0.0671195313334465,0.3393605257278038,-0.13406816483936126,0.0321593387995773,13.874001309619526,-12.12428377891773,6.316385077581517,0.7619837522506714,-0.42319977283477783,0.19180727005004883,0.6039297580718994,-0.7727603912353516,0.28547024726867676,0.2053864598274231,0.1256958544254303,-0.09805800765752792,0.0671195313334465,0.9849255084991455,0.3393605351448059,-0.13406816124916077,0.032159339636564255,-0.42319977283477783,0.19180727005004883,0.6039297580718994,-0.500015139579773,0.17583155632019043,0.6039297580718994,-0.5733856558799744,0.1480359435081482,0.6039297580718994,-0.64150470495224,0.10910487174987793,0.6039297580718994,-0.7026948928833008,0.05999690294265747,0.6039297580718994,-0.7554495334625244,0.0019212961196899414,0.6039297580718994,-0.7984696626663208,-0.06369191408157349,0.6039297580718994,-0.8306959867477417,-0.13522720336914062,0.6039297580718994,-0.8513349890708923,-0.21092304587364197,0.6039297580718994,-0.859878420829773,-0.28891560435295105,0.6039297580718994,0.2674189805984497,-1.5707963705062866,1.1087456941604614,0.20000000298023224,14.935568647066603,-14.9999999999944,-5.542898629769948,38675.0
1.0998,0.0092,1,1,-0.003954839427024126,0.702558696269989,0.2054663896560669,-0.4258614778518677,0.8860283493995667,0.8004478812217712,-0.7970904111862183,0.23891538381576538,0.20909233391284943,0.9845098853111267,0.12885817885398865,-0.09888537973165512,0.065996453166008,0.2972070465981344,-0.19045852864956592,0.08576269204544643,14.255978454422271,-12.22291170784786,6.135891825546818,0.7521098852157593,-0.42190665006637573,0.18346965312957764,0.5949814915657043,-0.7970904111862183,0.23891538381576538,0.20909233391284943,0.12885817885398865,-0.09888537973165512,0.065996453166008,0.9845098853111267,0.2972070574760437,-0.1904585212469101,0.08576269447803497,-0.42190665006637573,0.18346965312957764,0.5949814915657043,-0.49818962812423706,0.16511929035186768,0.5949814915657043,-0.5706628561019897,0.1350616216659546,0.5949814915657043,-0.6375417113304138,0.09403663873672485,0.5949814915657043,-0.6971794962882996,0.04305464029312134,0.5949814915657043,-0.7481076717376709,-0.016629159450531006,0.5949814915657043,-0.7890722155570984,-0.0835450291633606,0.5949814915657043,-0.8190644979476929,-0.1560453176498413,0.5949814915657043,-0.8373459577560425,-0.2323448359966278,0.5949814915657043,-0.8434665203094482,-0.3105648159980774,0.5949814915657043,0.22450709342956543,-1.5707963705062866,1.104249119758606,0.20000000298023224,13.899438785664978,-14.9999999999972,-5.903885133839377,38675.0
1.12,0.01,1,1,-0.020964745432138443,0.7083295583724976,0.20595206320285797,-0.44153302907943726,0.8832826614379883,0.8004478812217712,-0.830073356628418,0.19524042308330536,0.18376924097537994,0.983843207359314,0.13167788088321686,-0.10113140195608139,0.0669618621468544,0.2728993433540588,-0.16637251692148258,0.09252261880752977,14.56805489746712,-12.511154506886076,6.18179569699631,0.7489402890205383,-0.4205682873725891,0.17495310306549072,0.5944958329200745,-0.830073356628418,0.19524042308330536,0.18376924097537994,0.13167788088321686,-0.10113140195608139,0.0669618621468544,0.983843207359314,0.272899329662323,-0.16637252271175385,0.09252262115478516,-0.4205682873725891,0.17495310306549072,0.5944958329200745,-0.49622881412506104,0.1541849970817566,0.5944958329200745,-0.5677089691162109,0.12183666229248047,0.5944958329200745,-0.6332487463951111,0.07870465517044067,0.5944958329200745,-0.6912342309951782,0.025850951671600342,0.5944958329200745,-0.7402377128601074,-0.0354229211807251,0.5944958329200745,-0.7790524959564209,-0.10360825061798096,0.5944958329200745,-0.80672287940979,-0.17702609300613403,0.5944958329200745,-0.8225675225257874,-0.2538686692714691,0.5944958329200745,-0.8261963129043579,-0.33224380016326904,0.5944958329200745,0.25346171855926514,-1.5707963705062866,1.114327073097229,0.20000000298023224,14.21086276362178,-14.9999999999986,-5.812077390940386,38675.0
1.1397,0.0099,1,1,-0.034356772899627686,0.7099159359931946,0.2046775072813034,-0.4566970467567444,0.880132257938385,0.8004478812217712,-0.8353639245033264,0.1391250342130661,0.15748529136180878,0.9833877086639404,0.134797602891922,-0.10166138410568237,0.06664188951253891,0.03542744941483565,-0.15803645652488468,0.11881066528294512,14.937261373699945,-12.586391668358448,6.097155636554849,0.7498581409454346,-0.4223402738571167,0.17021632194519043,0.5957703590393066,-0.8353639245033264,0.1391250342130661,0.15748529136180878,0.134797602891922,-0.10166138410568237,0.06664188951253891,0.9833877086639404,0.03542745113372803,-0.15803645551204681,0.11881066858768463,-0.4223402738571167,0.17021632194519043,0.5957703590393066,-0.4973212480545044,0.1471148133277893,0.5957703590393066,-0.5677652359008789,0.11256814002990723,0.5957703590393066,-0.6319376826286316,0.06742691993713379,0.5957703590393066,-0.6882584095001221,0.012802660465240479,0.5957703590393066,-0.7353405952453613,-0.04995959997177124,0.5957703590393066,-0.772024929523468,-0.11931437253952026,0.5957703590393066,-0.7974081635475159,-0.19355398416519165,0.5957703590393066,-0.8108652234077454,-0.27085041999816895,0.5957703590393066,-0.8120648264884949,-0.3493003249168396,0.5957703590393066,0.24314475059509277,-1.5707963705062866,1.1155699491500854,0.20000000298023224,14.071015391740804,-14.9999999999993,-5.981357511823288,38675.0
1.1599,0.0093,1,1,-0.051639217883348465,0.7130118012428284,0.20982706546783447,-0.47199538350105286,0.8764522075653076,0.8004478812217712,-0.8668389320373535,0.08833079040050507,0.17157317698001862,0.9833602905273438,0.13528138399124146,-0.10175744444131851,0.0659160390496254,0.07126549169073426,-0.06039804258255641,0.12974870064357769,15.003011155689185,-12.589411621528981,6.005393627391202,0.7431318759918213,-0.4203561544418335,0.16344040632247925,0.5906208157539368,-0.8668389320373535,0.08833079040050507,0.17157317698001862,0.13528138399124146,-0.10175744444131851,0.0659160390496254,0.9833602905273438,0.07126548886299133,-0.06039804220199585,0.12974870204925537,-0.4203561544418335,0.16344040632247925,0.5906208157539368,-0.4945731461048126,0.1379910707473755,0.5906208157539368,-0.5638952255249023,0.10124492645263672,0.5906208157539368,-0.6266154646873474,0.054106831550598145,0.5906208157539368,-0.6811895370483398,-0.0022625327110290527,0.5906208157539368,-0.7262735366821289,-0.06647515296936035,0.5906208157539368,-0.7607574462890625,-0.13694989681243896,0.5906208157539368,-0.7837920784950256,-0.21195149421691895,0.5906208157539368,-0.7948103547096252,-0.28963303565979004,0.5906208157539368,-0.7935408353805542,-0.36808186769485474,0.5906208157539368,0.21471047401428223,-1.5707963705062866,1.1166661977767944,0.20000000298023224,13.186509685006255,-14.99999999999965,-6.16488153015059,38675.0
1.1799,0.0096,1,1,-0.0691327378153801,0.7150239944458008,0.2122410088777542,-0.48717811703681946,0.8722904324531555,0.8004478812217712,-0.8958342671394348,0.03901059925556183,0.1613520085811615,0.9832340478897095,0.1352846920490265,-0.10218384116888046,0.06712274253368378,0.034159277070875134,-0.06921010557330315,0.11891760784546862,14.986937349594118,-12.656331184745243,6.139266742181763,0.7385675311088562,-0.41804537177085876,0.15726643800735474,0.5882068872451782,-0.8958342671394348,0.03901059925556183,0.1613520085811615,0.1352846920490265,-0.10218384116888046,0.06712274253368378,0.9832340478897095,0.03415927663445473,-0.06921010464429855,0.11891760677099228,-0.41804537177085876,0.15726643800735474,0.5882068872451782,-0.4914243817329407,0.12949317693710327,0.5882068872451782,-0.5595552325248718,0.09058284759521484,0.5882068872451782,-0.620760440826416,0.04149359464645386,0.5882068872451782,-0.6735327839851379,-0.016565918922424316,0.5882068872451782,-0.7165729403495789,-0.08216601610183716,0.5882068872451782,-0.7488210797309875,-0.15369147062301636,0.5882068872451782,-0.7694831490516663,-0.2293809950351715,0.5882068872451782,-0.778050422668457,-0.30737096071243286,0.5882068872451782,-0.7743118405342102,-0.3857409358024597,0.5882068872451782,0.2029736042022705,-1.5707963705062866,1.1260486841201782,0.20000000298023224,12.408020279177592,-14.999999999999826,-5.897135300569475,38675.0
1.1996,0.0094,1,1,-0.08831369876861572,0.7168508768081665,0.22044402360916138,-0.5020502209663391,0.867708683013916,0.8004478812217712,-0.9211251735687256,-0.012987345457077026,0.16621728241443634,0.983309805393219,0.13533063232898712,-0.1022585779428482,0.06579221040010452,-0.10597278905729887,-0.13307842598736855,0.16267293675892858,15.008932436925683,-12.6450863393415,5.9833332730450985,0.7282447814941406,-0.4137365221977234,0.1508578062057495,0.5800038576126099,-0.9211251735687256,-0.012987345457077026,0.16621728241443634,0.13533063232898712,-0.1022585779428482,0.06579221040010452,0.983309805393219,-0.1059727892279625,-0.1330784261226654,0.16267293691635132,-0.4137365221977234,0.1508578062057495,0.5800038576126099,-0.48621565103530884,0.12081444263458252,0.5800038576126099,-0.5531026721000671,0.0798027515411377,0.5800038576126099,-0.6127505302429199,0.028832554817199707,0.5800038576126099,-0.6636905670166016,-0.03084111213684082,0.5800038576126099,-0.704668402671814,-0.09774887561798096,0.5800038576126099,-0.7346750497817993,-0.17024320363998413,0.5800038576126099,-0.7529716491699219,-0.24653911590576172,0.5800038576126099,-0.7591076493263245,-0.3247579038143158,0.5800038576126099,-0.752932071685791,-0.40297356247901917,0.5800038576126099,0.17947018146514893,-1.5707963705062866,1.1244114637374878,0.20000000298023224,11.34545211278882,-14.999999999999913,-6.209002238842806,38675.0
1.2199,0.0098,1,1,-0.10715577006340027,0.717336893081665,0.22178909182548523,-0.5171626806259155,0.8625257015228271,0.8004478812217712,-0.9463070631027222,-0.05918773636221886,0.1511322557926178,0.9833231568336487,0.1338978111743927,-0.10307716578245163,0.06723130494356155,-0.18706920675400615,-0.23489230617310197,0.19895544397600462,14.819682488131317,-12.75135947760329,6.157504870657929,0.7239001989364624,-0.41000691056251526,0.1451888084411621,0.5786588191986084,-0.9463070631027222,-0.05918773636221886,0.1511322557926178,0.1338978111743927,-0.10307716578245163,0.06723130494356155,0.9833231568336487,-0.18706920742988586,-0.23489230871200562,0.1989554464817047,-0.41000691056251526,0.1451888084411621,0.5786588191986084,-0.4814892113208771,0.11284518241882324,0.5786588191986084,-0.5470317602157593,0.06971746683120728,0.5786588191986084,-0.6050207614898682,0.01686757802963257,0.5786588191986084,-0.6540281772613525,-0.044403076171875,0.5786588191986084,-0.692847490310669,-0.11258590221405029,0.5786588191986084,-0.7205227613449097,-0.18600189685821533,0.5786588191986084,-0.7363724708557129,-0.26284343004226685,0.5786588191986084,-0.7400063276290894,-0.34121832251548767,0.5786588191986084,-0.731334924697876,-0.419196754693985,0.5786588191986084,0.18959176540374756,-1.5707963705062866,1.1263622045516968,0.20000000298023224,11.104130050428985,-14.999999999999957,-5.860659043617137,38675.0
1.24,0.0096,1,1,-0.13270153105258942,0.7121559977531433,0.23184025287628174,-0.5318677425384521,0.8569555282592773,0.8004478812217712,-0.9914553761482239,-0.1250426173210144,0.17604564130306244,0.9834744334220886,0.1316235512495041,-0.10464891791343689,0.06708159297704697,-0.3063867631385558,-0.06425593518834802,0.14859513434163346,14.549204725497349,-12.91457707246365,6.148566685584239,0.7096585035324097,-0.3991662263870239,0.14479953050613403,0.5686076283454895,-0.9914553761482239,-0.1250426173210144,0.17604564130306244,0.1316235512495041,-0.10464891791343689,0.06708159297704697,0.9834744334220886,-0.3063867688179016,-0.06425593793392181,0.14859513938426971,-0.3991662263870239,0.14479953050613403,0.5686076283454895,-0.46959608793258667,0.11022406816482544,0.5686076283454895,-0.533750057220459,0.0650566816329956,0.5686076283454895,-0.5900484919548035,0.01040947437286377,0.5686076283454895,-0.6371050477027893,-0.052371978759765625,0.5686076283454895,-0.6737611293792725,-0.12174177169799805,0.5686076283454895,-0.6991140246391296,-0.19599169492721558,0.5686076283454895,-0.712539553642273,-0.2732936441898346,0.5686076283454895,-0.7137071490287781,-0.35174402594566345,0.5686076283454895,-0.7025879621505737,-0.42941123247146606,0.5686076283454895,0.10787606239318848,-1.5707963705062866,1.1314407587051392,0.20000000298023224,8.642486568024312,-14.999999999999979,-5.878535413764541,38675.0
1.2596,0.0092,1,1,-0.15118086338043213,0.7084037661552429,0.22655586898326874,-0.5460871458053589,0.8510570526123047,0.8004478812217712,-1.0054088830947876,-0.17543430626392365,0.14017124474048615,0.9837223291397095,0.13002142310142517,-0.1040341928601265,0.06752528250217438,-0.34394409227993916,0.023135506648493433,0.13696895480008123,14.356897904616577,-12.840690928648272,6.2295820012698915,0.7110927700996399,-0.39490628242492676,0.14265328645706177,0.5738919973373413,-1.0054088830947876,-0.17543430626392365,0.14017124474048615,0.13002142310142517,-0.1040341928601265,0.06752528250217438,0.9837223291397095,-0.34394410252571106,0.023135507479310036,0.1369689553976059,-0.39490628242492676,0.14265328645706177,0.5738919973373413,-0.46423840522766113,0.10592609643936157,0.5738919973373413,-0.5269715189933777,0.058805108070373535,0.5738919973373413,-0.5815609097480774,0.0024506449699401855,0.5738919973373413,-0.6266624927520752,-0.06174969673156738,0.5738919973373413,-0.6611655950546265,-0.13221502304077148,0.5738919973373413,-0.6842207312583923,-0.20721030235290527,0.5738919973373413,-0.6952601671218872,-0.2848888635635376,0.5738919973373413,-0.6940121054649353,-0.36333802342414856,0.5738919973373413,-0.680507242679596,-0.4406261146068573,0.5738919973373413,0.1045612096786499,-1.5707963705062866,1.1368321180343628,0.20000000298023224,7.3167012916967025,-14.99999999999999,-5.716504782393215,38675.0
1.2799,0.0098,1,1,-0.169391468167305,0.7057446241378784,0.2389523983001709,-0.5606541037559509,0.8444714546203613,0.8004478812217712,-1.036191701889038,-0.22689318656921387,0.1924521028995514,0.9843128323554993,0.12596489489078522,-0.10369163751602173,0.06713585555553436,-0.47364503079384196,-0.03183673428421703,0.1690434344682367,13.886029034714126,-12.770332550917633,6.242223940619332,0.6982899308204651,-0.39126265048980713,0.1387268304824829,0.5614954829216003,-1.036191701889038,-0.22689318656921387,0.1924521028995514,0.12596489489078522,-0.10369163751602173,0.06713585555553436,0.9843128323554993,-0.47364503145217896,-0.03183673322200775,0.1690434366464615,-0.39126265048980713,0.1387268304824829,0.5614954829216003,-0.4593851566314697,0.09980189800262451,0.5614954829216003,-0.5205798149108887,0.05069953203201294,0.5614954829216003,-0.5733397603034973,-0.007371306419372559,0.5614954829216003,-0.6163658499717712,-0.07298064231872559,0.5614954829216003,-0.6485986113548279,-0.14451295137405396,0.5614954829216003,-0.6692444682121277,-0.22020694613456726,0.5614954829216003,-0.6777949929237366,-0.29819872975349426,0.5614954829216003,-0.6740396022796631,-0.37656790018081665,0.5614954829216003,-0.6580708622932434,-0.45338475704193115,0.5614954829216003,0.04959273338317871,-1.5707963705062866,1.1286739110946655,0.20000000298023224,5.079077804535194,-14.999999999999995,-5.691220903694352,38675.0
1.2999,0.0095,1,1,-0.1919034868478775,0.7017748355865479,0.233329176902771,-0.5746544599533081,0.8376015424728394,0.8004478812217712,-1.0681242942810059,-0.2620994448661804,0.1413094848394394,0.9848294854164124,0.12126632779836655,-0.10507749766111374,0.06604581326246262,-0.613339581166808,-0.20667060500920734,0.25507620433773076,13.343245037128007,-12.884423169500035,6.1599691394540255,0.6975463032722473,-0.3827509880065918,0.1358267068862915,0.5671187043190002,-1.0681242942810059,-0.2620994448661804,0.1413094848394394,0.12126632779836655,-0.10507749766111374,0.06604581326246262,0.9848294854164124,-0.6133396029472351,-0.2066706120967865,0.25507619976997375,-0.3827509880065918,0.1358267068862915,0.5671187043190002,-0.44962650537490845,0.09479618072509766,0.5671187043190002,-0.5092599987983704,0.04380923509597778,0.5671187043190002,-0.5601832866668701,-0.015878736972808838,0.5671187043190002,-0.6011422872543335,-0.08279794454574585,0.5671187043190002,-0.6311286091804504,-0.15530073642730713,0.5671187043190002,-0.6494038105010986,-0.2316017746925354,0.5671187043190002,-0.6555178761482239,-0.30982229113578796,0.5671187043190002,-0.6493202447891235,-0.38803622126579285,0.5671187043190002,-0.6309636235237122,-0.4643176794052124,0.5671187043190002,0.15222573280334473,-1.1753761768341064,1.1165162324905396,0.20000000298023224,6.900484913726508,-14.999999999999996,-5.85573050602493,38675.0
1.3199,0.0097,1,1,-0.21345917880535126,0.6971580982208252,0.23394373059272766,-0.5885323882102966,0.8302440047264099,0.8004478812217712,-1.0887203216552734,-0.30321159958839417,0.13043028116226196,0.9854846000671387,0.11416079103946686,-0.10607563704252243,0.06733071804046631,-0.7236182190088174,-0.20759024446788216,0.2461631700909672,12.488291764845798,-12.970236653331062,6.391860174298324,0.6923284530639648,-0.3750731945037842,0.13308590650558472,0.5665041208267212,-1.0887203216552734,-0.30321159958839417,0.13043028116226196,0.11416079103946686,-0.10607563704252243,0.06733071804046631,0.9854846000671387,-0.72361820936203,-0.2075902372598648,0.24616317451000214,-0.3750731945037842,0.13308590650558472,0.5665041208267212,-0.440626859664917,0.08997505903244019,0.5665041208267212,-0.4986293911933899,0.037140071392059326,0.5665041208267212,-0.5476526618003845,-0.024118006229400635,0.5665041208267212,-0.5864894390106201,-0.09229081869125366,0.5665041208267212,-0.6141835451126099,-0.16569972038269043,0.5665041208267212,-0.6300529837608337,-0.24253714084625244,0.5665041208267212,-0.6337069869041443,-0.32091110944747925,0.5665041208267212,-0.6250556707382202,-0.39889177680015564,0.5665041208267212,-0.604312002658844,-0.4745590090751648,0.5665041208267212,0.22227370738983154,-0.8929940462112427,1.1133226156234741,0.20000000298023224,9.817915121944836,-14.999999999999998,-5.391948436336366,38675.0
1.3398,0.0097,1,1,-0.2368636131286621,0.6928947567939758,0.23988546431064606,-0.6021632552146912,0.8224596381187439,0.8004478812217712,-1.1216026544570923,-0.34288737177848816,0.13950727880001068,0.9860869646072388,0.10706333070993423,-0.10795969516038895,0.06717611104249954,-0.6504586538613051,0.09570089350907918,0.18298666402669872,11.649749288328678,-13.138133540848845,6.448237085203915,0.6815138459205627,-0.36529964208602905,0.12956488132476807,0.5605624318122864,-1.1216026544570923,-0.34288737177848816,0.13950727880001068,0.10706333070993423,-0.10795969516038895,0.06717611104249954,0.9860869646072388,-0.6504586338996887,0.09570088982582092,0.18298666179180145,-0.36529964208602905,0.12956488132476807,0.5605624318122864,-0.42946773767471313,0.08441752195358276,0.5605624318122864,-0.4857832193374634,0.029787898063659668,0.5605624318122864,-0.5328593850135803,-0.032978832721710205,0.5605624318122864,-0.5695371031761169,-0.10233718156814575,0.5605624318122864,-0.5949131846427917,-0.17657923698425293,0.5605624318122864,-0.6083628535270691,-0.2538769245147705,0.5605624318122864,-0.6095549464225769,-0.3323269784450531,0.5605624318122864,-0.5984600186347961,-0.4099976420402527,0.5605624318122864,-0.575351357460022,-0.4849764108657837,0.5605624318122864,0.2657792568206787,-0.6571173667907715,1.1166785955429077,0.20000000298023224,12.408957560972418,-15.0,-5.279194614525195,38675.0
1.3597,0.0093,1,1,-0.2591902017593384,0.6863996982574463,0.24042922258377075,-0.61549311876297,0.8142829537391663,0.8004478812217712,-1.1499043703079224,-0.38057973980903625,0.12982220947742462,0.9871285557746887,0.09656456112861633,-0.10798730701208115,0.06774327158927917,-0.541409530915558,-0.001204492755323059,0.16832651150278735,10.410494544199748,-13.078035092450794,6.655140017376557,0.6759635806083679,-0.3563029170036316,0.12788325548171997,0.5600186586380005,-1.1499043703079224,-0.38057973980903625,0.12982220947742462,0.09656456112861633,-0.10798730701208115,0.06774327158927917,0.9871285557746887,-0.5414095520973206,-0.0012044927570968866,0.1683265119791031,-0.3563029170036316,0.12788325548171997,0.5600186586380005,-0.41902780532836914,0.08075129985809326,0.5600186586380005,-0.4736073613166809,0.02438730001449585,0.5600186586380005,-0.5186976194381714,-0.03982090950012207,0.5600186586380005,-0.5531884431838989,-0.11029231548309326,0.5600186586380005,-0.5762304663658142,-0.185291588306427,0.5600186586380005,-0.5872563123703003,-0.2629721164703369,0.5600186586380005,-0.5859944820404053,-0.34142106771469116,0.5600186586380005,-0.5724760890007019,-0.4187067747116089,0.5600186586380005,-0.547033965587616,-0.4929262399673462,0.5600186586380005,0.26337170600891113,-0.3400866985321045,1.1074191331863403,0.20000000298023224,13.704478780486209,-15.0,-4.865388750179861,38675.0
1.3801,0.01,1,1,-0.286983847618103,0.6841173768043518,0.25140491127967834,-0.6288570165634155,0.8054918050765991,0.8004478812217712,-1.191325068473816,-0.40653935074806213,0.18025988340377808,0.9874671697616577,0.09200470894575119,-0.10794835537672043,0.06920164823532104,0.04268052287058522,-0.019593652201499362,0.22085982742860866,9.85695692162539,-13.057257970311458,6.886642181524273,0.6580708026885986,-0.3418731689453125,0.12137442827224731,0.5490429401397705,-1.191325068473816,-0.40653935074806213,0.18025988340377808,0.09200470894575119,-0.10794835537672043,0.06920164823532104,0.9874671697616577,0.042680524289608,-0.019593652337789536,0.2208598256111145,-0.3418731689453125,0.12137442827224731,0.5490429401397705,-0.4030582308769226,0.07226014137268066,0.5490429401397705,-0.4558068513870239,0.014179050922393799,0.5490429401397705,-0.4988201856613159,-0.05143862962722778,0.5490429401397705,-0.5310391187667847,-0.12297725677490234,0.5490429401397705,-0.5516701936721802,-0.1986752450466156,0.5490429401397705,-0.5602055788040161,-0.2766686677932739,0.5490429401397705,-0.5564349293708801,-0.355037122964859,0.5490429401397705,-0.5404512286186218,-0.4318508505821228,0.5490429401397705,-0.5126479864120483,-0.505218505859375,0.5490429401397705,0.10989439487457275,-0.039246320724487305,1.0882173776626587,0.20000000298023224,10.000481899471666,-8.624324269464969,-4.402384421884439,38675.0
1.3998,0.0095,1,1,-0.3108249604701996,0.675935685634613,0.2557745575904846,-0.6414880156517029,0.7966015338897705,0.8004478812217712,-1.2151991128921509,-0.44042742252349854,0.18525350093841553,0.9871978759765625,0.0935717523097992,-0.10770069062709808,0.07129690051078796,0.4147342762951215,-0.06285513742210157,0.19274560145945555,10.013991461007425,-13.060896911740032,7.112379818008229,0.6485116481781006,-0.3306630551815033,0.12066584825515747,0.5446733236312866,-1.2151991128921509,-0.44042742252349854,0.18525350093841553,0.0935717523097992,-0.10770069062709808,0.07129690051078796,0.9871978759765625,0.41473427414894104,-0.06285513937473297,0.19274559617042542,-0.3306630551815033,0.12066584825515747,0.5446733236312866,-0.390301913022995,0.06968510150909424,0.5446733236312866,-0.4412313401699066,0.010002374649047852,0.5446733236312866,-0.4821973145008087,-0.05691260099411011,0.5446733236312866,-0.5121911764144897,-0.12941229343414307,0.5446733236312866,-0.5304741859436035,-0.20571142435073853,0.5446733236312866,-0.536596417427063,-0.28393128514289856,0.5446733236312866,-0.5304069519042969,-0.36214587092399597,0.5446733236312866,-0.5120581388473511,-0.43842923641204834,0.5446733236312866,-0.48200199007987976,-0.5109030604362488,0.5446733236312866,-0.10678648948669434,0.20033133029937744,1.079339861869812,0.20000000298023224,1.9410333714329724,1.4269077304653148,-3.950909148916537,38675.0
1.4203,0.0104,1,1,-0.34140267968177795,0.6710290908813477,0.279021292924881,-0.6542820930480957,0.7869808077812195,0.8004478812217712,-1.274505376815796,-0.4828954339027405,0.34195229411125183,0.9872288703918457,0.09368762373924255,-0.10663273185491562,0.07231301814317703,0.3458394640277485,0.27586074519671333,0.19438719060013718,10.019606751620499,-12.94946041576059,7.238691348587285,0.6190508604049683,-0.31287941336631775,0.11595171689987183,0.5214265584945679,-1.274505376815796,-0.4828954339027405,0.34195229411125183,0.09368762373924255,-0.10663273185491562,0.07231301814317703,0.9872288703918457,0.3458394706249237,0.2758607566356659,0.19438719749450684,-0.31287941336631775,0.11595171689987183,0.5214265584945679,-0.3708557188510895,0.06308799982070923,0.5214265584945679,-0.4198485314846039,0.0018055438995361328,0.5214265584945679,-0.45865151286125183,-0.06638652086257935,0.5214265584945679,-0.48630914092063904,-0.13980919122695923,0.5214265584945679,-0.5021404027938843,-0.2166544497013092,0.5214265584945679,-0.5057555437088013,-0.29503023624420166,0.5214265584945679,-0.4970654547214508,-0.37300658226013184,0.5214265584945679,-0.4762842357158661,-0.44866350293159485,0.5214265584945679,-0.4439234435558319,-0.5201380252838135,0.5214265584945679,-0.17627882957458496,0.445043683052063,1.0658119916915894,0.20000000298023224,-4.079499790348332,8.213453865232658,-3.69828608775844,38675.0
1.4402,0.0091,1,1,-0.36722615361213684,0.661303699016571,0.2860028147697449,-0.6663133502006531,0.7773271799087524,0.8004478812217712,-1.3119128942489624,-0.5187158584594727,0.3376583456993103,0.9870361089706421,0.0963834896683693,-0.1042037308216095,0.07489746809005737,-0.4018695770438711,1.1485196453975344,0.1849610317903426,10.31450955944522,-12.7174585635835,7.526181783698474,0.6062741279602051,-0.29908719658851624,0.1160234808921814,0.5144450664520264,-1.3119128942489624,-0.5187158584594727,0.3376583456993103,0.0963834896683693,-0.1042037308216095,0.07489746809005737,0.9870361089706421,-0.4018695652484894,1.1485196352005005,0.18496103584766388,-0.29908719658851624,0.1160234808921814,0.5144450664520264,-0.35540518164634705,0.06139647960662842,0.5144450664520264,-0.40248432755470276,-0.0013680458068847656,0.5144450664520264,-0.43916526436805725,-0.07072460651397705,0.5144450664520264,-0.4645448625087738,-0.14496546983718872,0.5144450664520264,-0.47799816727638245,-0.22226256132125854,0.5144450664520264,-0.47919389605522156,-0.30071255564689636,0.5144450664520264,-0.4681026041507721,-0.3783837556838989,0.5144450664520264,-0.4449974596500397,-0.4533635973930359,0.5144450664520264,-0.4104473292827606,-0.5238059163093567,0.5144450664520264,0.07850682735443115,0.6572479009628296,1.0197046995162964,0.20000000298023224,0.2093050400113876,11.60672693261633,-3.123305217536072,38675.0
1.4597,0.009,1,1,-0.40411463379859924,0.6732087135314941,0.2869548201560974,-0.6781434416770935,0.7672167420387268,0.8004478812217712,-1.3742763996124268,-0.39338693022727966,0.2610156834125519,0.9891126751899719,0.08277913182973862,-0.09574984014034271,0.07505874335765839,-1.2310238433359713,1.9422681503929262,0.24760149346144855,8.773063207068214,-11.644657227871537,7.782796308214659,0.5895798802375793,-0.27402880787849426,0.09400802850723267,0.5134930610656738,-1.3742763996124268,-0.39338693022727966,0.2610156834125519,0.08277913182973862,-0.09574984014034271,0.07505874335765839,0.9891126751899719,-1.2310237884521484,1.9422681331634521,0.2476014941930771,-0.27402880787849426,0.09400802850723267,0.5134930610656738,-0.3286195695400238,0.037654876708984375,0.5134930610656738,-0.373722642660141,-0.02654433250427246,0.5134930610656738,-0.40822741389274597,-0.09700888395309448,0.5134930610656738,-0.4312843382358551,-0.17200356721878052,0.5134930610656738,-0.442325621843338,-0.24968189001083374,0.5134930610656738,-0.4410794675350189,-0.3281310796737671,0.5134930610656738,-0.4275763928890228,-0.4054194986820221,0.5134930610656738,-0.4021490514278412,-0.4796440005302429,0.5134930610656738,-0.3654234707355499,-0.5489770174026489,0.5134930610656738,1.5707963705062866,1.184888482093811,0.9961174726486206,0.20000000298023224,7.604652520005694,13.303363466308165,-2.610076168503686,38675.0
1.4798,0.0097,1,1,-0.4330684244632721,0.6689652800559998,0.2871241271495819,-0.6898761987686157,0.7565335035324097,0.8004478812217712,-1.395209789276123,-0.40022948384284973,0.20516911149024963,0.9916518926620483,0.06852000206708908,-0.07759054005146027,0.07687072455883026,-1.511356169160982,2.913404755592425,0.14897754762941204,7.219883426079843,-9.463541373336357,8.266742736950375,0.5806201100349426,-0.25680777430534363,0.08756822347640991,0.5133237838745117,-1.395209789276123,-0.40022948384284973,0.20516911149024963,0.06852000206708908,-0.07759054005146027,0.07687072455883026,0.9916518926620483,-1.5113561153411865,2.913404703140259,0.14897754788398743,-0.25680777430534363,0.08756822347640991,0.5133237838745117,-0.3095828592777252,0.02951115369796753,0.5133237838745117,-0.3526260554790497,-0.03608691692352295,0.5133237838745117,-0.3848775327205658,-0.10761088132858276,0.5133237838745117,-0.40554311871528625,-0.1832994520664215,0.5133237838745117,-0.4141140282154083,-0.26128900051116943,0.5133237838745117,-0.4103790819644928,-0.3396591544151306,0.5133237838745117,-0.39443036913871765,-0.416480153799057,0.5133237838745117,-0.3666605055332184,-0.4898604452610016,0.5133237838745117,-0.3277533948421478,-0.5579931735992432,0.5133237838745117,1.5707963705062866,1.1384059190750122,1.0086549520492554,0.20000000298023224,11.302326260002847,14.151681733154081,-1.6421833110322492,38675.0
1.4998,0.009,1,1,-0.46110254526138306,0.6619822978973389,0.2880653142929077,-0.7011398077011108,0.7456077933311462,0.8004478812217712,-1.4146772623062134,-0.41709771752357483,0.17334476113319397,0.9945821762084961,0.04538945481181145,-0.05254681035876274,0.07734892517328262,-0.8169403770322378,3.185211237503656,0.09961947705940018,4.742292900700511,-6.404437205812592,8.628424999969697,0.5719676613807678,-0.24003726243972778,0.08362549543380737,0.5123825669288635,-1.4146772623062134,-0.41709771752357483,0.17334476113319397,0.04538945481181145,-0.05254681035876274,0.07734892517328262,0.9945821762084961,-0.8169403672218323,3.185211181640625,0.09961947798728943,-0.24003726243972778,0.08362549543380737,0.5123825669288635,-0.2909644842147827,0.023940980434417725,0.5123825669288635,-0.331928014755249,-0.042975544929504395,0.5123825669288635,-0.3619191646575928,-0.11547631025314331,0.5123825669288635,-0.38019949197769165,-0.1917760968208313,0.5123825669288635,-0.38631880283355713,-0.26999619603157043,0.5123825669288635,-0.3801264762878418,-0.34821054339408875,0.5123825669288635,-0.36177492141723633,-0.4244932532310486,0.5123825669288635,-0.3317161202430725,-0.49696600437164307,0.5123825669288635,-0.2906901240348816,-0.5638442039489746,0.5123825669288635,1.5707963705062866,1.1746805906295776,1.020628571510315,0.20000000298023224,13.151163130001423,14.57584086657704,-0.9188187849936187,38675.0
1.5197,0.0091,1,1,-0.5008832216262817,0.6679069995880127,0.30565154552459717,-0.7120274305343628,0.7343634366989136,0.8004478812217712,-1.4798856973648071,-0.36643582582473755,0.2728472650051117,0.9961584806442261,0.032702475786209106,-0.00911704171448946,0.08070775866508484,0.21570444690091964,2.838357941338428,0.08779891172540738,3.652189312267444,-1.3432921953418917,9.221011462732802,0.5420532822608948,-0.21114420890808105,0.06645643711090088,0.4947963356971741,-1.4798856973648071,-0.36643582582473755,0.2728472650051117,0.032702475786209106,-0.00911704171448946,0.08070775866508484,0.9961584806442261,0.21570444107055664,2.838357925415039,0.08779890835285187,-0.21114420890808105,0.06645643711090088,0.4947963356971741,-0.2601783871650696,0.0052071213722229,0.4947963356971741,-0.29902738332748413,-0.0629587173461914,0.4947963356971741,-0.32673460245132446,-0.13636267185211182,0.4947963356971741,-0.3426177501678467,-0.21319729089736938,0.4947963356971741,-0.3462858200073242,-0.29157060384750366,0.4947963356971741,-0.3376484513282776,-0.3695527911186218,0.4947963356971741,-0.3169183135032654,-0.44522374868392944,0.4947963356971741,-0.28460580110549927,-0.5167201161384583,0.4947963356971741,-0.2415066957473755,-0.5822814702987671,0.4947963356971741,1.5707963705062866,1.5519579648971558,1.0388740301132202,0.20000000298023224,14.07558156500071,14.78792043328852,0.2663541405325989,38675.0
1.5396,0.0094,1,1,-0.5302102565765381,0.6595675349235535,0.31064313650131226,-0.7225819826126099,0.7227562665939331,0.8004478812217712,-1.4864884614944458,-0.3872806131839752,0.2868032157421112,0.9960699677467346,0.03387695550918579,0.004702516365796328,0.08168741315603256,1.0662124548007363,2.236441457035297,0.0924841111626429,3.913847335267235,0.2196398365420788,9.384123193666214,0.5300079584121704,-0.19237172603607178,0.06318873167037964,0.489804744720459,-1.4864884614944458,-0.3872806131839752,0.2868032157421112,0.03387695550918579,0.004702516365796328,0.08168741315603256,0.9960699677467346,1.0662124156951904,2.2364413738250732,0.09248410910367966,-0.19237172603607178,0.06318873167037964,0.489804744720459,-0.23946022987365723,0.00043123960494995117,0.489804744720459,-0.27615153789520264,-0.06891989707946777,0.489804744720459,-0.3015422224998474,-0.1431570053100586,0.489804744720459,-0.3150070309638977,-0.22045204043388367,0.489804744720459,-0.31621450185775757,-0.29890185594558716,0.489804744720459,-0.3051348328590393,-0.37657469511032104,0.489804744720459,-0.28204089403152466,-0.45155802369117737,0.489804744720459,-0.24750125408172607,-0.5220054984092712,0.489804744720459,-0.20236647129058838,-0.5861824154853821,0.489804744720459,1.5707963705062866,1.5707963705062866,1.020227074623108,0.20000000298023224,14.537790782500355,14.89396021664426,0.5925776023994489,38675.0
1.5599,0.0091,1,1,-0.5619945526123047,0.6639119982719421,0.31985366344451904,-0.7328495979309082,0.7107239365577698,0.8004478812217712,-1.4664469957351685,-0.32300060987472534,0.3056941032409668,0.9954763650894165,0.0371025875210762,0.030306482687592506,0.08203505724668503,1.3760701157879922,1.922679934785121,0.07844977652776493,4.52868369485532,3.1099000997857593,9.544932897353844,0.512204647064209,-0.17085504531860352,0.04681193828582764,0.4805942177772522,-1.4664469957351685,-0.32300060987472534,0.3056941032409668,0.0371025875210762,0.030306482687592506,0.08203505724668503,0.9954763650894165,1.3760701417922974,1.9226799011230469,0.0784497782588005,-0.17085504531860352,0.04681193828582764,0.4805942177772522,-0.2159348726272583,-0.017403602600097656,0.4805942177772522,-0.2504141330718994,-0.08788061141967773,0.4805942177772522,-0.27344387769699097,-0.1628836989402771,0.4805942177772522,-0.2844570279121399,-0.24056601524353027,0.4805942177772522,-0.28318238258361816,-0.3190147578716278,0.4805942177772522,-0.2696513533592224,-0.39629825949668884,0.4805942177772522,-0.24419713020324707,-0.47051358222961426,0.4805942177772522,-0.20744645595550537,-0.5398332476615906,0.4805942177772522,-0.1603042483329773,-0.6025503873825073,0.4805942177772522,1.5707963705062866,1.5707963705062866,1.054613709449768,0.20000000298023224,14.768895391250178,14.94698010832213,0.9141970097747091,38675.0
1.5795,0.0094,1,1,-0.5881563425064087,0.6569709181785583,0.32334911823272705,-0.7425612807273865,0.6985926032066345,0.8004478812217712,-1.426950454711914,-0.33399251103401184,0.2996150553226471,0.9940051436424255,0.04866112768650055,0.05190868303179741,0.08300215005874634,1.3763532098118678,1.4861343025832232,0.09882455676352515,6.075319140560157,5.458056181739348,9.836403638917437,0.5031863451004028,-0.15440493822097778,0.04162168502807617,0.4770987629890442,-1.426950454711914,-0.33399251103401184,0.2996150553226471,0.04866112768650055,0.05190868303179741,0.08300215005874634,0.9940051436424255,1.3763532638549805,1.4861342906951904,0.09882455319166183,-0.15440493822097778,0.04162168502807617,0.4770987629890442,-0.19746744632720947,-0.023963749408721924,0.4770987629890442,-0.22973990440368652,-0.09547823667526245,0.4770987629890442,-0.2504277229309082,-0.1711607277393341,0.4770987629890442,-0.259021520614624,-0.24914777278900146,0.4770987629890442,-0.2553096413612366,-0.3275189995765686,0.4770987629890442,-0.23938345909118652,-0.40434470772743225,0.4770987629890442,-0.21163523197174072,-0.47773313522338867,0.4770987629890442,-0.17274808883666992,-0.5458772778511047,0.4770987629890442,-0.12367969751358032,-0.607099175453186,0.4770987629890442,1.5707963705062866,1.5707963705062866,1.056904673576355,0.20000000298023224,14.884447695625088,14.973490054161065,1.4971384929018967,38675.0
1.5998,0.0092,1,1,-0.6230034232139587,0.660538375377655,0.33817461133003235,-0.7520951628684998,0.6858845353126526,0.8004478812217712,-1.4213515520095825,-0.30725786089897156,0.3583484888076782,0.9888110756874084,0.08462049812078476,0.08349636197090149,0.09010167419910431,0.9961251788657667,1.25288213745696,0.0648456048267728,10.630665056816715,8.61970343759287,11.216401690081911,0.4806284010410309,-0.12909173965454102,0.02534615993499756,0.4622732698917389,-1.4213515520095825,-0.30725786089897156,0.3583484888076782,0.08462049812078476,0.08349636197090149,0.09010167419910431,0.9888110756874084,0.9961251616477966,1.2528821229934692,0.06484560668468475,-0.12909173965454102,0.02534615993499756,0.4622732698917389,-0.17004883289337158,-0.04157423973083496,0.4622732698917389,-0.2000330686569214,-0.1140778660774231,0.4622732698917389,-0.2183060646057129,-0.19037944078445435,0.4622732698917389,-0.22441786527633667,-0.26860010623931885,0.4622732698917389,-0.21821808815002441,-0.3468138575553894,0.4622732698917389,-0.19985926151275635,-0.42309480905532837,0.4622732698917389,-0.1697934865951538,-0.49556466937065125,0.4622732698917389,-0.12876111268997192,-0.56243896484375,0.4622732698917389,-0.07777243852615356,-0.6220710873603821,0.4622732698917389,1.5707963705062866,1.5707963705062866,1.0812550783157349,0.20000000298023224,14.942223847812544,14.986745027080532,4.25713459523084,38675.0
1.6199,0.0091,1,1,-0.6034163236618042,0.582266628742218,0.30640342831611633,-0.7611057758331299,0.6730490922927856,0.8004478812217712,-1.19771409034729,-0.6605004072189331,0.21459658443927765,0.9863489866256714,0.09556043893098831,0.09823668748140335,0.09127673506736755,0.6026567099281186,1.0132240046446204,-0.06364320423935883,12.106661122055996,10.15702122006229,11.65407098345209,0.5264858603477478,-0.15768945217132568,0.09078246355056763,0.4940444529056549,-1.19771409034729,-0.6605004072189331,0.21459658443927765,0.09556043893098831,0.09823668748140335,0.09127673506736755,0.9863489866256714,0.6026567220687866,1.0132240056991577,-0.0636432021856308,-0.15768945217132568,0.09078246355056763,0.4940444529056549,-0.19652771949768066,0.022610485553741455,0.4940444529056549,-0.22422337532043457,-0.05079782009124756,0.4940444529056549,-0.24009448289871216,-0.1276349127292633,0.4940444529056549,-0.2437502145767212,-0.20600879192352295,0.4940444529056549,-0.23510056734085083,-0.28398963809013367,0.4940444529056549,-0.21435850858688354,-0.359657347202301,0.4940444529056549,-0.18203479051589966,-0.4311486482620239,0.4940444529056549,-0.13892537355422974,-0.49670320749282837,0.4940444529056549,-0.08609163761138916,-0.5547069311141968,0.4940444529056549,-0.17976891994476318,1.5707963705062866,1.0634793043136597,0.20000000298023224,2.321111723676223,14.993372513540265,5.132473181971206,38675.0
1.6399,0.0092,1,1,-0.613762617111206,0.5584933757781982,0.3110201060771942,-0.7696987986564636,0.6599540114402771,0.8004478812217712,-1.1111325025558472,-0.7379287481307983,0.23013505339622498,0.9855728149414062,0.09711045771837234,0.10447012633085251,0.0911034643650055,0.31503897404605974,0.9041957875134304,-0.07442505768562586,12.373551515493928,10.84960237889164,11.742069569434484,0.5235932469367981,-0.15593618154525757,0.10146063566207886,0.489427775144577,-1.1111325025558472,-0.7379287481307983,0.23013505339622498,0.09711045771837234,0.10447012633085251,0.0911034643650055,0.9855728149414062,0.3150389790534973,0.9041957855224609,-0.07442505657672882,-0.15593618154525757,0.10146063566207886,0.489427775144577,-0.1926201581954956,0.03210568428039551,0.489427775144577,-0.21800297498703003,-0.042134106159210205,0.489427775144577,-0.23145967721939087,-0.11943060159683228,0.489427775144577,-0.23265880346298218,-0.19788053631782532,0.489427775144577,-0.2215709090232849,-0.2755521833896637,0.489427775144577,-0.19846898317337036,-0.35053306818008423,0.489427775144577,-0.16392195224761963,-0.4209768772125244,0.489427775144577,-0.11878031492233276,-0.4851490259170532,0.489427775144577,-0.06415581703186035,-0.5414694547653198,0.489427775144577,-0.6180552244186401,1.4126802682876587,1.0754016637802124,0.20000000298023224,-6.339444138161889,14.996686256770133,5.308470353935974,38675.0
1.6601,0.0097,1,1,-0.633563220500946,0.5439257621765137,0.30942028760910034,-0.7779775857925415,0.646426796913147,0.8004478812217712,-1.0575867891311646,-0.7688285708427429,0.1976977437734604,0.9840518832206726,0.09804835170507431,0.11860224604606628,0.08921826630830765,-0.5553378301271589,0.6946159286846637,-0.03906535243101911,12.668263410292946,12.469866347105201,11.750632441145891,0.5219866633415222,-0.14441436529159546,0.1025010347366333,0.4910275936126709,-1.0575867891311646,-0.7688285708427429,0.1976977437734604,0.09804835170507431,0.11860224604606628,0.08921826630830765,0.9840518832206726,-0.5553378462791443,0.69461590051651,-0.03906535357236862,-0.14441436529159546,0.1025010347366333,0.4910275936126709,-0.17888027429580688,0.032017529010772705,0.4910275936126709,-0.2018958330154419,-0.042989909648895264,0.4910275936126709,-0.2128942608833313,-0.12067431211471558,0.4910275936126709,-0.2116047739982605,-0.199122816324234,0.4910275936126709,-0.19805908203125,-0.2764037549495697,0.4910275936126709,-0.17259079217910767,-0.3506142497062683,0.4910275936126709,-0.1358269453048706,-0.4199269413948059,0.4910275936126709,-0.08867287635803223,-0.48263517022132874,0.4910275936126709,-0.03228956460952759,-0.5371947884559631,0.4910275936126709,-0.3938640356063843,1.5625807046890259,1.0423051118850708,0.20000000298023224,-10.669722069080944,14.998343128385066,5.325596097358779,38675.0
1.6799,0.0068,1,1,-0.6513116955757141,0.5355726480484009,0.31878742575645447,-0.785752534866333,0.63277268409729,0.8004478812217712,-1.0040912628173828,-0.7695189118385315,0.2316189855337143,0.9841399788856506,0.09169653803110123,0.12317744642496109,0.08880025148391724,-1.5076463857625018,0.5914272248756905,0.019520916694821172,11.990152350026474,13.07123780158821,11.690429313843882,0.5094300508499146,-0.1344408392906189,0.09720003604888916,0.4816604554653168,-1.0040912628173828,-0.7695189118385315,0.2316189855337143,0.09169653803110123,0.12317744642496109,0.08880025148391724,0.9841399788856506,-1.5076464414596558,0.591427206993103,0.019520916044712067,-0.1344408392906189,0.09720003604888916,0.4816604554653168,-0.16667503118515015,0.025668323040008545,0.4816604554653168,-0.18732237815856934,-0.05002525448799133,0.4816604554653168,-0.19587445259094238,-0.128016859292984,0.4816604554653168,-0.19212061166763306,-0.20638611912727356,0.4816604554653168,-0.17615336179733276,-0.28320327401161194,0.4816604554653168,-0.14836585521697998,-0.3565768599510193,0.4816604554653168,-0.10944229364395142,-0.42470020055770874,0.4816604554653168,-0.06034111976623535,-0.4858958125114441,0.4816604554653168,-0.0022713541984558105,-0.5386568903923035,0.4816604554653168,0.10972344875335693,1.5707963705062866,1.0212570428848267,0.20000000298023224,-2.1915157709468094,14.999171564192533,5.205189842754746,38675.0
