t_s,telemetry_age_s,airborne,phase,pos_x,pos_y,pos_z,ref_x,ref_y,ref_z,vel_x,vel_y,vel_z,qw,qx,qy,qz,gyro_x,gyro_y,gyro_z,roll_meas_deg,pitch_meas_deg,yaw_meas_deg,pos_err,obs_0,obs_1,obs_2,obs_3,obs_4,obs_5,obs_6,obs_7,obs_8,obs_9,obs_10,obs_11,obs_12,obs_13,obs_14,obs_15,obs_16,obs_17,obs_18,obs_19,obs_20,obs_21,obs_22,obs_23,obs_24,obs_25,obs_26,obs_27,obs_28,obs_29,obs_30,obs_31,obs_32,obs_33,obs_34,obs_35,obs_36,obs_37,obs_38,obs_39,obs_40,obs_41,obs_42,act_roll_rad,act_pitch_rad,act_yaw_rad,act_thrust_N,cmd_roll_deg,cmd_pitch_deg,cmd_yaw,cmd_pwm
0.0,0.0166,0,1,0.029408922418951988,0.298795223236084,-0.039015673100948334,0.027006689459085464,0.296571284532547,0.7626533508300781,0.016786446794867516,0.005288747139275074,0.002333040116354823,0.9912117123603821,-0.006863303482532501,-0.0008840613882057369,0.1320962756872177,-0.005481260419100893,0.007723388744554863,0.0055071419756478,-0.792972321199032,0.003474969150088974,15.181816470117774,0.8016756772994995,-0.0024022329598665237,-0.0022239387035369873,0.8016690015792847,0.016786446794867516,0.005288747139275074,0.002333040116354823,-0.006863303482532501,-0.0008840613882057369,0.1320962756872177,0.9912117123603821,-0.005481260363012552,0.0077233887277543545,0.005507141817361116,-0.0024022329598665237,-0.0022239387035369873,0.8016690015792847,-0.00856219232082367,0.07599297165870667,0.8016690015792847,-0.026882130652666092,0.15228328108787537,0.8016690015792847,-0.05691095441579819,0.22476845979690552,0.8016690015792847,-0.09790924936532974,0.29166364669799805,0.8016690015792847,-0.14886750280857086,0.3513217568397522,0.8016690015792847,-0.2085309475660324,0.4022737145423889,0.8016690015792847,-0.27543050050735474,0.443264901638031,0.8016690015792847,-0.347918838262558,0.47328609228134155,0.8016690015792847,-0.4242110848426819,0.4915980100631714,0.8016690015792847,1.0021146535873413,1.5707963705062866,0.6593993902206421,0.20000000298023224,15.0,15.0,0.09513918291607543,4000.0
0.0208,0.0165,0,1,0.024814821779727936,0.2947109639644623,-0.04514237865805626,0.02675124630331993,0.3125254213809967,0.7626533508300781,0.010602562688291073,-0.007319973781704903,-0.03740730881690979,0.9912156462669373,-0.006066631525754929,-0.0014286639634519815,0.1321011632680893,0.000626066390051133,0.00010819838829399598,-0.00028207446750204575,-0.710723434750276,-0.07044002113723254,15.18277376490549,0.8079944252967834,0.0019364245235919952,0.017814457416534424,0.8077957034111023,0.010602562688291073,-0.007319973781704903,-0.03740730881690979,-0.006066631525754929,-0.0014286639634519815,0.1321011632680893,0.9912156462669373,0.000626066408585757,0.00010819838644238189,-0.00028207447030581534,0.0019364245235919952,0.017814457416534424,0.8077957034111023,-0.006716163828969002,0.09579500555992126,0.8077957034111023,-0.027461066842079163,0.17146188020706177,0.8077957034111023,-0.05978747829794884,0.24295195937156677,0.8077957034111023,-0.10289940983057022,0.30850496888160706,0.8077957034111023,-0.1557353138923645,0.3665066659450531,0.8077957034111023,-0.21699416637420654,0.41552892327308655,0.8077957034111023,-0.2851676046848297,0.4543646275997162,0.8077957034111023,-0.3585769534111023,0.4820575416088104,0.8077957034111023,-0.4354146420955658,0.497925728559494,0.8077957034111023,0.7925161123275757,1.5707963705062866,0.6380192041397095,0.20000000298023224,15.0,15.0,0.09705377249151292,8000.0
0.0403,0.0171,0,1,0.02345031499862671,0.2971842885017395,-0.035002388060092926,0.026007547974586487,0.3281383216381073,0.7626533508300781,0.007448231335729361,0.004436306655406952,0.038560785353183746,0.9912097454071045,-0.006873329635709524,-0.0015560593456029892,0.13210465013980865,0.03383925873460469,-0.06493287744793254,0.014599532319598449,-0.8042849381038103,-0.07269488555797982,15.183333141796426,0.7982602715492249,0.002557232975959778,0.030954033136367798,0.7976557612419128,0.007448231335729361,0.004436306655406952,0.038560785353183746,-0.006873329635709524,-0.0015560593456029892,0.13210465013980865,0.9912097454071045,0.033839259296655655,-0.06493287533521652,0.014599531888961792,0.002557232975959778,0.030954033136367798,0.7976557612419128,-0.008528594858944416,0.10862600803375244,0.7976557612419128,-0.03162851184606552,0.18360748887062073,0.7976557612419128,-0.06617371737957001,0.25405222177505493,0.7976557612419128,-0.111313596367836,0.31822556257247925,0.7976557612419128,-0.1659366488456726,0.37454742193222046,0.7976557612419128,-0.22869789600372314,0.4216309189796448,0.7976557612419128,-0.2980519235134125,0.45831674337387085,0.7976557612419128,-0.3722909986972809,0.48370152711868286,0.7976557612419128,-0.4495871365070343,0.49716025590896606,0.7976557612419128,0.6289268732070923,1.5707963705062866,0.6472855806350708,0.20000000298023224,15.0,15.0,0.09817252627334767,12000.0
0.0602,0.016,0,1,0.023591872304677963,0.2971404492855072,-0.03424782305955887,0.024764975532889366,0.34383857250213623,0.7626533508300781,0.006313418038189411,0.003482794389128685,0.03841270133852959,0.9911884665489197,-0.006414513569325209,-0.0020578978583216667,0.1322801262140274,0.006648561895734103,0.001706411625941215,-0.003753972106926979,-0.7597906232612361,-0.13650754819845742,15.203981336840444,0.7982690930366516,0.001173103228211403,0.04669812321662903,0.7969011664390564,0.006313418038189411,0.003482794389128685,0.03841270133852959,-0.006414513569325209,-0.0020578978583216667,0.1322801262140274,0.9911884665489197,0.006648561917245388,0.0017064115963876247,-0.0037539720069617033,0.001173103228211403,0.04669812321662903,0.7969011664390564,-0.012353485450148582,0.12398239970207214,0.7969011664390564,-0.03780346363782883,0.19819915294647217,0.7969011664390564,-0.07455016672611237,0.267520934343338,0.7969011664390564,-0.12168878316879272,0.33024081587791443,0.7969011664390564,-0.17805859446525574,0.3848143517971039,0.7969011664390564,-0.2422715723514557,0.42989787459373474,0.7969011664390564,-0.3127466142177582,0.4643811881542206,0.7969011664390564,-0.3877483606338501,0.48741528391838074,0.7969011664390564,-0.46543002128601074,0.49843284487724304,0.7969011664390564,0.486721396446228,1.5707963705062866,0.6563016176223755,0.20000000298023224,15.0,15.0,0.1394689163613897,16000.0
0.0803,0.0156,0,1,0.02447568252682686,0.29422885179519653,-0.04412193223834038,0.023020470514893532,0.3595554530620575,0.7626533508300781,0.013572449795901775,-0.001367633929476142,-0.040961071848869324,0.991201639175415,-0.005885128863155842,-0.0014477933291345835,0.13221421837806702,0.051841289355375006,-0.10620693085138727,0.052532608523656744,-0.6904048888639898,-0.07528179529496076,15.195844334652223,0.8094170689582825,-0.0014552120119333267,0.06532660126686096,0.8067752718925476,0.013572449795901775,-0.001367633929476142,-0.040961071848869324,-0.005885128863155842,-0.0014477933291345835,0.13221421837806702,0.991201639175415,0.051841288805007935,-0.10620693117380142,0.052532609552145004,-0.0014552120119333267,0.06532660126686096,0.8067752718925476,-0.017418984323740005,0.14214450120925903,0.8067752718925476,-0.045203182846307755,0.21551930904388428,0.8067752718925476,-0.08412366360425949,0.2836443781852722,0.8067752718925476,-0.1332220882177353,0.34484225511550903,0.8067752718925476,-0.19128946959972382,0.3976059556007385,0.8067752718925476,-0.2568960189819336,0.4406362771987915,0.8067752718925476,-0.3284262716770172,0.4728737473487854,0.8067752718925476,-0.4041188955307007,0.49352455139160156,0.8067752718925476,-0.4821101427078247,0.5020800828933716,0.8067752718925476,0.3147929906845093,1.5707963705062866,0.640870213508606,0.20000000298023224,15.0,15.0,0.12319491198497344,20000.0
0.1007,0.0158,0,1,0.024533357471227646,0.2941572666168213,-0.044088564813137054,0.02080894261598587,0.3750263452529907,0.7626533508300781,0.014270192012190819,0.002092070644721389,-0.03398468345403671,0.9911461472511292,-0.005445652641355991,-0.0019152314634993672,0.1326422393321991,-0.027871062716872074,0.13815575092798302,-0.05222929112025353,-0.647627282178445,-0.13475415116576445,15.245610156424384,0.8107935190200806,-0.0037244148552417755,0.08086907863616943,0.8067418932914734,0.014270192012190819,0.002092070644721389,-0.03398468345403671,-0.005445652641355991,-0.0019152314634993672,0.1326422393321991,0.9911461472511292,-0.027871062979102135,0.1381557434797287,-0.05222929269075394,-0.0037244148552417755,0.08086907863616943,0.8067418932914734,-0.02208114229142666,0.157150536775589,0.8067418932914734,-0.052144914865493774,0.22962123155593872,0.8067418932914734,-0.09317547082901001,0.2964966297149658,0.8067418932914734,-0.14416249096393585,0.35613012313842773,0.8067418932914734,-0.20385050773620605,0.40705329179763794,0.8067418932914734,-0.27076980471611023,0.4480122923851013,0.8067418932914734,-0.3432725965976715,0.4779984951019287,0.8067418932914734,-0.41957366466522217,0.49627357721328735,0.8067418932914734,-0.49779418110847473,0.5023875832557678,0.8067418932914734,0.23736774921417236,1.5420902967453003,0.6739882230758667,0.20000000298023224,14.30008511124592,15.0,0.22272655552929538,24000.0
0.1201,0.0173,0,1,0.02551729418337345,0.292697936296463,-0.048390232026576996,0.018111802637577057,0.39043721556663513,0.7626533508300781,0.01629387028515339,0.0007392045226879418,-0.05163279548287392,0.9911569952964783,-0.005215140990912914,-0.000812494836281985,0.13258220255374908,0.05851170893769647,-0.055910645274097316,0.04254746052343293,-0.6046817718202695,-0.013049120935079907,15.237935269426778,0.8169451951980591,-0.007405491545796394,0.09773927927017212,0.8110435605049133,0.01629387028515339,0.0007392045226879418,-0.05163279548287392,-0.005215140990912914,-0.000812494836281985,0.13258220255374908,0.9911569952964783,0.05851170793175697,-0.05591064691543579,0.04254746064543724,-0.007405491545796394,0.09773927927017212,0.8110435605049133,-0.028139803558588028,0.17340907454490662,0.8110435605049133,-0.060456208884716034,0.24490371346473694,0.8110435605049133,-0.1035589650273323,0.31046268343925476,0.8110435605049133,-0.15638674795627594,0.36847177147865295,0.8110435605049133,-0.2176387459039688,0.41750261187553406,0.8110435605049133,-0.2858067452907562,0.45634785294532776,0.8110435605049133,-0.3592122197151184,0.48405107855796814,0.8110435605049133,-0.43604767322540283,0.4999299943447113,0.8110435605049133,-0.5144211649894714,0.5035938024520874,0.8110435605049133,0.03417468070983887,1.4958680868148804,0.6634913682937622,0.20000000298023224,8.129075041063418,15.0,0.2073767815340824,28000.0
0.1399,0.0159,0,1,0.026951486244797707,0.2951328158378601,-0.04241643846035004,0.014920072630047798,0.4058176577091217,0.7626533508300781,0.01762574166059494,0.005458607338368893,-0.028104420751333237,0.9911956787109375,-0.005155748687684536,-0.00031512469286099076,0.13229677081108093,-0.04067239121774619,0.09615413855947545,-0.02217049774393561,-0.590391569487747,0.04236893433716209,15.204639207849947,0.8127319812774658,-0.012031413614749908,0.1106848418712616,0.8050698041915894,0.01762574166059494,0.005458607338368893,-0.028104420751333237,-0.005155748687684536,-0.00031512469286099076,0.13229677081108093,0.9911956787109375,-0.04067239165306091,0.09615413844585419,-0.022170497104525566,-0.012031413614749908,0.1106848418712616,0.8050698041915894,-0.03513246029615402,0.18566596508026123,0.8050698041915894,-0.06967872381210327,0.25611019134521484,0.8050698041915894,-0.11481957137584686,0.32028287649154663,0.8050698041915894,-0.16944348812103271,0.376603901386261,0.8050698041915894,-0.23220543563365936,0.4236864447593689,0.8050698041915894,-0.30156001448631287,0.460371196269989,0.8050698041915894,-0.3757994771003723,0.48575490713119507,0.8050698041915894,-0.45309582352638245,0.49921244382858276,0.8050698041915894,-0.5315457582473755,0.5004124641418457,0.8050698041915894,-0.048148274421691895,1.3431893587112427,0.6983948945999146,0.20000000298023224,2.6851910629313887,15.0,0.14078465838040385,32000.0
0.1603,0.0168,0,1,0.028300954028964043,0.296223521232605,-0.04678177088499069,0.011213427409529686,0.4212198257446289,0.7626533508300781,0.01922065205872059,0.009030484594404697,-0.05032696947455406,0.9912128448486328,-0.005464472342282534,-0.00035200666752643883,0.13215582072734833,-0.002718494503509439,0.045519219566014305,-0.0011244785485054136,-0.6260234417318647,0.04277110821938806,15.188354534417375,0.8192077279090881,-0.017087526619434357,0.12499630451202393,0.8094351291656494,0.01922065205872059,0.009030484594404697,-0.05032696947455406,-0.005464472342282534,-0.00035200666752643883,0.13215582072734833,0.9912128448486328,-0.0027184945065528154,0.04551921784877777,-0.0011244785273447633,-0.017087526619434357,0.12499630451202393,0.8094351291656494,-0.042552366852760315,0.19920796155929565,0.8094351291656494,-0.07931295782327652,0.26852238178253174,0.8094351291656494,-0.1264641284942627,0.33123278617858887,0.8094351291656494,-0.1828448623418808,0.38579511642456055,0.8094351291656494,-0.24706687033176422,0.4308657646179199,0.8094351291656494,-0.31754881143569946,0.465334951877594,0.8094351291656494,-0.3925551474094391,0.488353967666626,0.8094351291656494,-0.4702390432357788,0.4993560314178467,0.8094351291656494,-0.5486875772476196,0.4980701804161072,0.8094351291656494,-0.1607668399810791,1.25021231174469,0.7066808938980103,0.20000000298023224,-3.263035176819753,15.0,0.1082153115152642,36000.0
0.1801,0.0158,0,1,0.030386455357074738,0.2996634542942047,-0.036124903708696365,0.007093164138495922,0.4362480938434601,0.7626533508300781,0.01801419071853161,0.014863709919154644,0.031188340857625008,0.9912061095237732,-0.005647751502692699,-4.2949963244609535e-05,0.13219918310642242,0.0242273777282907,0.034205193713138383,0.050396724201088774,-0.6421581045451364,0.08067888633991153,15.193163914579959,0.8107062578201294,-0.02329329028725624,0.13658463954925537,0.798778235912323,0.01801419071853161,0.014863709919154644,0.031188340857625008,-0.005647751502692699,-4.2949963244609535e-05,0.13219918310642242,0.9912061095237732,0.024227377027273178,0.03420519456267357,0.05039672553539276,-0.02329329028725624,0.13658463954925537,0.798778235912323,-0.051058344542980194,0.2099667489528656,0.798778235912323,-0.08996105194091797,0.27810195088386536,0.798778235912323,-0.13904350996017456,0.3393125832080841,0.798778235912323,-0.19709712266921997,0.39209142327308655,0.798778235912323,-0.2626924216747284,0.43513891100883484,0.798778235912323,-0.3342142403125763,0.46739503741264343,0.798778235912323,-0.40990149974823,0.48806557059288025,0.798778235912323,-0.48789048194885254,0.49664148688316345,0.798778235912323,-0.5662608742713928,0.4929116666316986,0.798778235912323,-0.33974385261535645,1.1183191537857056,0.7270878553390503,0.20000000298023224,-9.131517588409878,15.0,0.11783407184041286,40000.0
0.2,0.016,0,1,0.02459627203643322,0.2952018976211548,-0.04048284515738487,0.0024537956342101097,0.4513029456138611,0.7626533508300781,0.007521258667111397,0.004915541037917137,0.0027263069059699774,0.9911159873008728,-0.005263237282633781,0.0006641356740146875,0.13288669288158417,-0.0363171782455175,0.6543193053355385,0.002435692022952569,-0.5876636328287356,0.15557538468327745,15.272273460602303,0.8184653520584106,-0.022142477333545685,0.1561010479927063,0.8031361699104309,0.007521258667111397,0.004915541037917137,0.0027263069059699774,-0.005263237282633781,0.0006641356740146875,0.13288669288158417,0.9911159873008728,-0.03631717711687088,0.6543192863464355,0.0024356921203434467,-0.022142477333545685,0.1561010479927063,0.8031361699104309,-0.052205510437488556,0.22857201099395752,0.8031361699104309,-0.09323538094758987,0.2954478859901428,0.8031361699104309,-0.14422178268432617,0.3550819158554077,0.8031361699104309,-0.20390929281711578,0.4060056805610657,0.8031361699104309,-0.27082815766334534,0.4469653367996216,0.8031361699104309,-0.3433306813240051,0.47695231437683105,0.8031361699104309,-0.4196315407752991,0.4952281713485718,0.8031361699104309,-0.49785199761390686,0.5013429522514343,0.8031361699104309,-0.5760659575462341,0.4951460361480713,0.8031361699104309,-0.4462531805038452,0.9878114461898804,0.7235342264175415,0.20000000298023224,-12.065758794204939,15.0,0.27605316388510165,44000.0
0.2208,0.016,0,1,0.02806095778942108,0.2971571087837219,-0.03624333068728447,-0.0026249601505696774,0.466113805770874,0.7626533508300781,0.02624511905014515,0.007189603056758642,0.05419054999947548,0.9910661578178406,-0.005885668098926544,0.008081280626356602,0.13298854231834412,-0.03218775972183549,1.4258990582058655,-0.011813582858509745,-0.5453614408855828,1.0075191557191987,15.280604869728489,0.8171436786651611,-0.030685918405652046,0.1689566969871521,0.7988966703414917,0.02624511905014515,0.007189603056758642,0.05419054999947548,-0.005885668098926544,0.008081280626356602,0.13298854231834412,0.9910661578178406,-0.03218775987625122,1.4258990287780762,-0.011813582852482796,-0.030685918405652046,0.1689566969871521,0.7988966703414917,-0.06300335377454758,0.24045085906982422,0.7988966703414917,-0.10610705614089966,0.3060092329978943,0.7988966703414917,-0.15893566608428955,0.3640175461769104,0.7988966703414917,-0.22018837928771973,0.4130474925041199,0.7988966703414917,-0.2883569598197937,0.45189177989959717,0.7988966703414917,-0.3617628216743469,0.4795938730239868,0.7988966703414917,-0.43859851360321045,0.495471715927124,0.7988966703414917,-0.5169720649719238,0.499134361743927,0.7988966703414917,-0.594953715801239,0.4904915690422058,0.7988966703414917,-0.5221787691116333,0.579621434211731,0.7459944486618042,0.20000000298023224,-13.53287939710247,15.0,0.2927159821374795,44230.0
0.2401,0.0167,0,1,0.024910399690270424,0.29509320855140686,-0.03854503855109215,-0.00817394070327282,0.48078104853630066,0.7626533508300781,0.025647545233368874,0.00035662963637150824,0.05258958414196968,0.9908154606819153,-0.006795202381908894,0.02202785387635231,0.13323374092578888,0.012888859115764456,2.1545967909408184,0.01334205943337679,-0.43566629905207716,2.6056660216836995,15.307166996308215,0.8230998516082764,-0.03308434039354324,0.1856878399848938,0.8011983633041382,0.025647545233368874,0.00035662963637150824,0.05258958414196968,-0.006795202381908894,0.02202785387635231,0.13323374092578888,0.9908154606819153,0.012888859026134014,2.1545968055725098,0.013342059217393398,-0.03308434039354324,0.1856878399848938,0.8011983633041382,-0.0676279217004776,0.2561333477497101,0.8011983633041382,-0.1127663180232048,0.32030776143074036,0.8011983633041382,-0.16738808155059814,0.37663087248802185,0.8011983633041382,-0.23014822602272034,0.42371585965156555,0.8011983633041382,-0.2995013892650604,0.4604032337665558,0.8011983633041382,-0.37373989820480347,0.4857897460460663,0.8011983633041382,-0.4510357081890106,0.49925026297569275,0.8011983633041382,-0.5294855833053589,0.5004532337188721,0.8011983633041382,-0.607157826423645,0.4893692433834076,0.8011983633041382,-0.6240296363830566,0.26199424266815186,0.7307826280593872,0.20000000298023224,-14.266439698551235,15.0,0.345840235296944,44230.0
0.2609,0.0167,0,1,0.026770098134875298,0.29366371035575867,-0.04325077310204506,-0.014299226924777031,0.4955417513847351,0.7626533508300781,0.0365142785012722,0.0007611372275277972,0.04052143543958664,0.9900846481323242,-0.010298138484358788,0.043439190834760666,0.1331815868616104,-0.3013651065871024,3.036356777850876,-0.10774064532316391,-0.5074417122932224,5.092274634817648,15.29975373401335,0.8318190574645996,-0.04106932505965233,0.20187804102897644,0.8059041500091553,0.0365142785012722,0.0007611372275277972,0.04052143543958664,-0.010298138484358788,0.043439190834760666,0.1331815868616104,0.9900846481323242,-0.30136510729789734,3.0363566875457764,-0.10774064809083939,-0.04106932505965233,0.20187804102897644,0.8059041500091553,-0.07784657180309296,0.271183580160141,0.8059041500091553,-0.1250128149986267,0.33388271927833557,0.8059041500091553,-0.1814066618680954,0.3884314000606537,0.8059041500091553,-0.24563950300216675,0.43348661065101624,0.8059041500091553,-0.3161297142505646,0.46793892979621887,0.8059041500091553,-0.3911415934562683,0.4909398853778839,0.8059041500091553,-0.46882811188697815,0.5019233226776123,0.8059041500091553,-0.5472763776779175,0.500618577003479,0.8059041500091553,-0.6245546936988831,0.48705795407295227,0.8059041500091553,-0.48078691959381104,-0.2038593292236328,0.761184811592102,0.20000000298023224,-14.633219849275617,1.659860410558938,0.3310137107071979,44230.0
0.2802,0.015,0,1,0.0258509311825037,0.2960765063762665,-0.036884862929582596,-0.02071557752788067,0.509722888469696,0.7626533508300781,0.05683470889925957,0.021172713488340378,0.09410069137811661,0.9883949756622314,-0.0177189689129591,0.07173305749893188,0.13271698355674744,-1.0790994913156298,2.3415588221057053,0.0021306211984488377,-0.9259781093869162,8.424405577809717,15.2270943600418,0.828899621963501,-0.04656650871038437,0.21364638209342957,0.7995381951332092,0.05683470889925957,0.021172713488340378,0.09410069137811661,-0.0177189689129591,0.07173305749893188,0.13271698355674744,0.9883949756622314,-1.0790995359420776,2.3415589332580566,0.002130621112883091,-0.04656650871038437,0.21364638209342957,0.7995381951332092,-0.08548318594694138,0.2817736566066742,0.7995381951332092,-0.1345781832933426,0.3429742157459259,0.7995381951332092,-0.19264261424541473,0.39574119448661804,0.7995381951332092,-0.2582467496395111,0.4387752115726471,0.7995381951332092,-0.3297751843929291,0.47101667523384094,0.7995381951332092,-0.4054666757583618,0.4916716516017914,0.7995381951332092,-0.48345741629600525,0.5002316236495972,0.7995381951332092,-0.5618270635604858,0.4964856803417206,0.7995381951332092,-0.6386458277702332,0.48052623867988586,0.7995381951332092,-0.30040156841278076,-0.22396624088287354,0.8333007097244263,0.20000000298023224,-14.81660992463781,-5.586229972720034,0.18569496276414077,44230.0
0.3008,0.0159,0,1,0.027462340891361237,0.29654940962791443,-0.03467341512441635,-0.027688181027770042,0.5239285826683044,0.7626533508300781,0.09618551284074783,0.03591660410165787,0.13430972397327423,0.9862661957740784,-0.030046479776501656,0.09343742579221725,0.13282950222492218,-1.448672015003242,1.5579934461704497,0.010745023800926377,-2.0115065303457595,11.086483495363177,15.145517388371863,0.8309469223022461,-0.05515052378177643,0.22737917304039001,0.7973267436027527,0.09618551284074783,0.03591660410165787,0.13430972397327423,-0.030046479776501656,0.09343742579221725,0.13282950222492218,0.9862661957740784,-1.4486720561981201,1.5579934120178223,0.010745023377239704,-0.05515052378177643,0.22737917304039001,0.7973267436027527,-0.09620361030101776,0.294240802526474,0.7973267436027527,-0.1472107321023941,0.3538570702075958,0.7973267436027527,-0.20691591501235962,0.4047601521015167,0.7973267436027527,-0.2738490104675293,0.44569656252861023,0.7973267436027527,-0.34636190533638,0.4756583273410797,0.7973267436027527,-0.42266911268234253,0.49390771985054016,0.7973267436027527,-0.5008916854858398,0.49999532103538513,0.7973267436027527,-0.5791035890579224,0.4937712848186493,0.7973267436027527,-0.6553788185119629,0.47538885474205017,0.7973267436027527,-0.26177024841308594,-0.3728065490722656,0.9165951013565063,0.20000000298023224,-14.907470180399384,-10.293114986360017,0.02254101942422799,44230.0
0.3199,0.0169,0,1,0.033017151057720184,0.2966207265853882,-0.0319422222673893,-0.03494834154844284,0.5376187562942505,0.7626533508300781,0.14367760717868805,0.04711327329277992,0.18197385966777802,0.9840550422668457,-0.045964084565639496,0.10847480595111847,0.13324470818042755,-1.1523832263489668,0.5661184726673677,0.009558812320107654,-3.6227025188306152,13.046355552884531,15.007918895405464,0.8331155776977539,-0.06796549260616302,0.2409980297088623,0.7945955991744995,0.14367760717868805,0.04711327329277992,0.18197385966777802,-0.045964084565639496,0.10847480595111847,0.13324470818042755,0.9840550422668457,-1.1523832082748413,0.5661184787750244,0.009558812715113163,-0.06796549260616302,0.2409980297088623,0.7945955991744995,-0.11107081174850464,0.3065553307533264,0.7945955991744995,-0.16390085220336914,0.36456239223480225,0.7945955991744995,-0.2251547873020172,0.41359078884124756,0.7945955991744995,-0.2933242917060852,0.45243340730667114,0.7945955991744995,-0.36673086881637573,0.48013371229171753,0.7945955991744995,-0.4435669481754303,0.4960096478462219,0.7945955991744995,-0.5219405889511108,0.4996703267097473,0.7945955991744995,-0.5999220013618469,0.4910256266593933,0.7945955991744995,-0.675590991973877,0.47028833627700806,0.7945955991744995,-0.49785447120666504,-0.6737806797027588,0.988545298576355,0.20000000298023224,-14.953735090199693,-12.646557493180008,-0.2526559665085588,44230.0
0.3399,0.0167,0,1,0.03475649654865265,0.2981933057308197,-0.026733238250017166,-0.042729441076517105,0.551246702671051,0.7626533508300781,0.15003004670143127,0.08781830221414566,0.2367529422044754,0.9832338690757751,-0.05890941619873047,0.10822588950395584,0.13440968096256256,-1.032229454026889,-1.2687950576024014,0.004561139822924468,-5.112471946477085,13.218117365548999,14.975581650879318,0.8325690627098083,-0.07748593389987946,0.2530533969402313,0.7893865704536438,0.15003004670143127,0.08781830221414566,0.2367529422044754,-0.05890941619873047,0.10822588950395584,0.13440968096256256,0.9832338690757751,-1.0322294235229492,-1.2687950134277344,0.004561139736324549,-0.07748593389987946,0.2530533969402313,0.7893865704536438,-0.12262734025716782,0.3172256648540497,0.7893865704536438,-0.17725172638893127,0.3735462725162506,0.7893865704536438,-0.24001409113407135,0.42062827944755554,0.7893865704536438,-0.30936896800994873,0.4573124349117279,0.7893865704536438,-0.38360869884490967,0.48269549012184143,0.7893865704536438,-0.46090513467788696,0.4961523711681366,0.7893865704536438,-0.5393550395965576,0.497351735830307,0.7893865704536438,-0.6170267462730408,0.48626402020454407,0.7893865704536438,-0.6920076608657837,0.4631623327732086,0.7893865704536438,-0.6149040460586548,-0.7893272042274475,1.0013173818588257,0.20000000298023224,-14.976867545099847,-13.823278746590004,-0.31733045556082906,44230.0
0.36,0.0166,0,1,0.03490946441888809,0.3020251393318176,-0.015295697376132011,-0.05093201994895935,0.5646200180053711,0.7626533508300781,0.158985435962677,0.12954963743686676,0.3241060972213745,0.9840333461761475,-0.06766282021999359,0.09159999340772629,0.13677552342414856,-0.8155249734918879,-2.1738711530141575,-0.06830249195142574,-6.333132967640794,11.465867350084896,15.189750138561854,0.825547993183136,-0.08584148436784744,0.26259487867355347,0.7779490351676941,0.158985435962677,0.12954963743686676,0.3241060972213745,-0.06766282021999359,0.09159999340772629,0.13677552342414856,0.9840333461761475,-0.8155249953269958,-2.1738710403442383,-0.06830248981714249,-0.08584148436784744,0.26259487867355347,0.7779490351676941,-0.13297393918037415,0.3253193497657776,0.7779490351676941,-0.18933841586112976,0.3798984885215759,0.7779490351676941,-0.25354698300361633,0.4249882698059082,0.7779490351676941,-0.32401859760284424,0.459478497505188,0.7779490351676941,-0.3990181088447571,0.4825199246406555,0.7779490351676941,-0.47669869661331177,0.4935451149940491,0.7779490351676941,-0.555147647857666,0.4922826886177063,0.7779490351676941,-0.632433295249939,0.4787636995315552,0.7779490351676941,-0.7066525220870972,0.4533209800720215,0.7779490351676941,-0.7702418565750122,-0.9798622727394104,0.9687129259109497,0.20000000298023224,-14.988433772549923,-14.411639373295003,0.1110065198042107,44230.0
0.3801,0.0167,0,1,0.038820959627628326,0.3044343888759613,-0.008363981731235981,-0.05959032103419304,0.5777885317802429,0.7626533508300781,0.19919247925281525,0.15946941077709198,0.36871644854545593,0.9853812456130981,-0.07196548581123352,0.06834439933300018,0.13846221566200256,-0.5558461942897414,-2.6121216077878695,-0.01716315048185487,-7.145913560006342,8.894733809735207,15.44071131217173,0.8239386677742004,-0.09841127693653107,0.2733541429042816,0.77101731300354,0.19919247925281525,0.15946941077709198,0.36871644854545593,-0.07196548581123352,0.06834439933300018,0.13846221566200256,0.9853812456130981,-0.5558462142944336,-2.61212158203125,-0.017163150012493134,-0.09841127693653107,0.2733541429042816,0.77101731300354,-0.14749714732170105,0.3345620334148407,0.77101731300354,-0.20555371046066284,0.38733765482902527,0.77101731300354,-0.27115145325660706,0.4303814470767975,0.77101731300354,-0.3426750600337982,0.46263357996940613,0.77101731300354,-0.418363481760025,0.4832998216152191,0.77101731300354,-0.4963529407978058,0.4918713867664337,0.77101731300354,-0.5747231841087341,0.48813721537590027,0.77101731300354,-0.6515443325042725,0.47218915820121765,0.77101731300354,-0.7249248623847961,0.4444200098514557,0.77101731300354,-0.9455073475837708,-1.2666857242584229,0.93732750415802,0.20000000298023224,-14.994216886274963,-14.705819686647501,0.6129288670239773,44230.0
0.3998,0.0158,0,1,0.039306286722421646,0.30969226360321045,0.009962628595530987,-0.06854640692472458,0.590522289276123,0.7626533508300781,0.1784878522157669,0.19480900466442108,0.49403542280197144,0.9865851402282715,-0.07357794791460037,0.03875141218304634,0.14047177135944366,-0.562404627948225,-2.293034961780026,-0.04903367674329419,-7.75474132109924,5.574179286266287,15.82869222105372,0.8105807304382324,-0.10785269737243652,0.2808300256729126,0.7526907324790955,0.1784878522157669,0.19480900466442108,0.49403542280197144,-0.07357794791460037,0.03875141218304634,0.14047177135944366,0.9865851402282715,-0.5624046325683594,-2.2930350303649902,-0.04903367534279823,-0.10785269737243652,0.2808300256729126,0.7526907324790955,-0.15882030129432678,0.34048008918762207,0.7526907324790955,-0.21849173307418823,0.39142268896102905,0.7526907324790955,-0.2853977084159851,0.43240344524383545,0.7526907324790955,-0.3578907549381256,0.4624132513999939,0.7526907324790955,-0.43418583273887634,0.4807131886482239,0.7526907324790955,-0.5124043822288513,0.48685264587402344,0.7526907324790955,-0.5906202793121338,0.4806804060935974,0.7526907324790955,-0.6669077277183533,0.4623485207557678,0.7526907324790955,-0.7393881678581238,0.4323083162307739,0.7526907324790955,-0.9723735451698303,-1.437956690788269,0.9502111673355103,0.20000000298023224,-14.997108443137481,-14.85290984332375,1.38889068478798,44230.0
0.42,0.0168,0,1,0.04344846308231354,0.31387218832969666,0.020107651129364967,-0.07804995030164719,0.6031712889671326,0.7626533508300781,0.19399486482143402,0.23279190063476562,0.5365021824836731,0.9868777990341187,-0.07599169760942459,0.0155719555914402,0.14160896837711334,-0.5354832984103456,-1.8086327242635676,-0.07273509888164566,-8.382332239870319,2.9954955493426074,16.111889470348864,0.8061203360557556,-0.12149841338396072,0.2892991006374359,0.7425457239151001,0.19399486482143402,0.23279190063476562,0.5365021824836731,-0.07599169760942459,0.0155719555914402,0.14160896837711334,0.9868777990341187,-0.5354833006858826,-1.808632731437683,-0.07273510098457336,-0.12149841338396072,0.2892991006374359,0.7425457239151001,-0.1743277609348297,0.3473067581653595,0.7425457239151001,-0.23558108508586884,0.3963359296321869,0.7425457239151001,-0.3037501573562622,0.43517938256263733,0.7425457239151001,-0.3771563768386841,0.46288058161735535,0.7425457239151001,-0.45399224758148193,0.47875747084617615,0.7425457239151001,-0.5323658585548401,0.48241910338401794,0.7425457239151001,-0.610347330570221,0.47377529740333557,0.7425457239151001,-0.6860165596008301,0.4530389606952667,0.7425457239151001,-0.7575103044509888,0.4207206070423126,0.7425457239151001,-0.9182863235473633,-1.5707963705062866,0.9783610105514526,0.20000000298023224,-14.99855422156874,-14.926454921661875,1.9552851833782519,44230.0
0.4399,0.0159,0,1,0.052343178540468216,0.3155994713306427,0.018079670146107674,-0.08783673495054245,0.6153777837753296,0.7626533508300781,0.20552541315555573,0.25156673789024353,0.48343271017074585,0.9867212772369385,-0.07759018987417221,-0.0026934421621263027,0.14265908300876617,-0.6166433656571058,-1.4253809402157904,-0.14375432307295324,-8.853588430964415,0.9639058552228947,16.378854910802925,0.8148051500320435,-0.14017991721630096,0.2997783124446869,0.7445736527442932,0.20552541315555573,0.25156673789024353,0.48343271017074585,-0.07759018987417221,-0.0026934421621263027,0.14265908300876617,0.9867212772369385,-0.6166433691978455,-1.4253809452056885,-0.14375431835651398,-0.14017991721630096,0.2997783124446869,0.7445736527442932,-0.1947982758283615,0.35610470175743103,0.7445736527442932,-0.25755560398101807,0.4031934440135956,0.7445736527442932,-0.32690659165382385,0.43988505005836487,0.7445736527442932,-0.40114355087280273,0.4652760326862335,0.7445736527442932,-0.4784385859966278,0.4787411391735077,0.7445736527442932,-0.5568883419036865,0.47994890809059143,0.7445736527442932,-0.6345612406730652,0.46886953711509705,0.7445736527442932,-0.7095446586608887,0.4457758963108063,0.7445736527442932,-0.7799922823905945,0.41123655438423157,0.7445736527442932,-0.8138429522514343,-1.5707963705062866,1.0137954950332642,0.20000000298023224,-14.99927711078437,-14.963227460830938,2.48921606428634,44230.0
0.4599,0.0163,0,1,0.0606972798705101,0.31932541728019714,0.019451024010777473,-0.09804442524909973,0.6273217797279358,0.7626533508300781,0.16772842407226562,0.2611081898212433,0.4763730764389038,0.9863038659095764,-0.0808589905500412,-0.0184796079993248,0.1425589621067047,-0.3852901009670965,-1.5584364630177843,-0.0803290944076282,-9.484845648665729,-0.7677102183361956,16.512644187689247,0.8200063109397888,-0.15874171257019043,0.30799636244773865,0.7432023286819458,0.16772842407226562,0.2611081898212433,0.4763730764389038,-0.0808589905500412,-0.0184796079993248,0.1425589621067047,0.9863038659095764,-0.38529008626937866,-1.5584365129470825,-0.08032909780740738,-0.15874171257019043,0.30799636244773865,0.7432023286819458,-0.21510285139083862,0.3625788986682892,0.7432023286819458,-0.2793086767196655,0.40767255425453186,0.7432023286819458,-0.34977826476097107,0.4421670734882355,0.7432023286819458,-0.4247763454914093,0.46521303057670593,0.7432023286819458,-0.5024562478065491,0.47624292969703674,0.7432023286819458,-0.5809052586555481,0.474985271692276,0.7432023286819458,-0.6581916809082031,0.46147093176841736,0.7432023286819458,-0.7324124574661255,0.4360327422618866,0.7432023286819458,-0.8017401099205017,0.3992970287799835,0.7432023286819458,-0.9111219048500061,-1.5707963705062866,0.9946678876876831,0.20000000298023224,-14.999638555392185,-14.981613730415468,2.7567946180589997,44230.0
0.4801,0.0161,0,1,0.06565190106630325,0.3250758647918701,0.024266298860311508,-0.108660489320755,0.6389797329902649,0.7626533508300781,0.1280183643102646,0.2844211757183075,0.4813113808631897,0.9857043027877808,-0.08272658288478851,-0.0347786471247673,0.14258965849876404,-0.5496969553327484,-1.386105972039847,-0.19023357476123828,-9.972836174522365,-2.577518583278101,16.68724292264908,0.8210577964782715,-0.17431238293647766,0.3139038681983948,0.7383870482444763,0.1280183643102646,0.2844211757183075,0.4813113808631897,-0.08272658288478851,-0.0347786471247673,0.14258965849876404,0.9857043027877808,-0.5496969819068909,-1.386106014251709,-0.19023357331752777,-0.17431238293647766,0.3139038681983948,0.7383870482444763,-0.23236653208732605,0.36668211221694946,0.7383870482444763,-0.2979622781276703,0.4097289443016052,0.7383870482444763,-0.36948442459106445,0.4419843554496765,0.7383870482444763,-0.44517189264297485,0.4626540541648865,0.7383870482444763,-0.523160994052887,0.4712292551994324,0.7383870482444763,-0.6015313267707825,0.4674986004829407,0.7383870482444763,-0.6783531904220581,0.4515541195869446,0.7383870482444763,-0.7517350316047668,0.42378830909729004,0.7383870482444763,-0.819869875907898,0.38488495349884033,0.7383870482444763,-0.7806842923164368,-1.5707963705062866,1.0200666189193726,0.20000000298023224,-14.999819277696092,-14.990806865207734,3.1059920879786604,44230.0
0.5002,0.0161,0,1,0.06646967679262161,0.33123835921287537,0.0364096574485302,-0.11968686431646347,0.6503450870513916,0.7626533508300781,0.0626726746559143,0.3174651861190796,0.5138000845909119,0.984734296798706,-0.08632452040910721,-0.05172786861658096,0.14201655983924866,-0.4812415979347521,-1.3109434434364862,-0.14371638967217643,-10.676350527612417,-4.436684452329357,16.827751255444593,0.81480872631073,-0.18615654110908508,0.31910672783851624,0.7262436747550964,0.0626726746559143,0.3174651861190796,0.5138000845909119,-0.08632452040910721,-0.05172786861658096,0.14201655983924866,0.984734296798706,-0.4812415838241577,-1.3109434843063354,-0.14371639490127563,-0.18615654110908508,0.31910672783851624,0.7262436747550964,-0.24585285782814026,0.3700201213359833,0.7262436747550964,-0.31277886033058167,0.41096821427345276,0.7262436747550964,-0.3852865397930145,0.44094255566596985,0.7262436747550964,-0.46159058809280396,0.4592052400112152,0.7262436747550964,-0.5398120880126953,0.46530643105506897,0.7262436747550964,-0.618025004863739,0.4590959846973419,0.7262436747550964,-0.6943034529685974,0.44072678685188293,0.7262436747550964,-0.7667692303657532,0.41065123677253723,0.7262436747550964,-0.8336379528045654,0.3696097433567047,0.7262436747550964,-0.7435927391052246,-1.5707963705062866,1.003200650215149,0.20000000298023224,-14.999909638848045,-14.995403432603867,3.387008753569705,44230.0
0.5205,0.016,0,1,0.07090160995721817,0.335621178150177,0.04215233027935028,-0.13103461265563965,0.6613246202468872,0.7626533508300781,0.027300246059894562,0.3390622138977051,0.5177095532417297,0.9837865233421326,-0.08805067092180252,-0.065854512155056,0.1416770964860916,-0.34998464097494325,-1.0353875636055596,-0.17846714649877976,-11.125887204252336,-6.005506123267193,16.975301951411435,0.8160775899887085,-0.20193621516227722,0.3257034420967102,0.7205010056495667,0.027300246059894562,0.3390622138977051,0.5177095532417297,-0.08805067092180252,-0.065854512155056,0.1416770964860916,0.9837865233421326,-0.34998464584350586,-1.0353875160217285,-0.17846713960170746,-0.20193621516227722,0.3257034420967102,0.7205010056495667,-0.2632104158401489,0.374706506729126,0.7205010056495667,-0.3313959836959839,0.4135209321975708,0.7205010056495667,-0.4048140048980713,0.44119083881378174,0.7205010056495667,-0.48165664076805115,0.45703500509262085,0.7205010056495667,-0.5600318312644958,0.4606632590293884,0.7205010056495667,-0.6380096673965454,0.45198625326156616,0.7205010056495667,-0.7136700749397278,0.43121767044067383,0.7205010056495667,-0.7851499915122986,0.3988689184188843,0.7205010056495667,-0.8506894707679749,0.35573649406433105,0.7205010056495667,-0.7312955856323242,-1.5707963705062866,1.0111709833145142,0.20000000298023224,-14.999954819424023,-14.997701716301933,3.6821101455033767,44230.0
0.5405,0.0175,0,1,0.06866433471441269,0.34653788805007935,0.06201416254043579,-0.1426130086183548,0.6718432903289795,0.7626533508300781,-0.03183924779295921,0.3837319016456604,0.582638680934906,0.9827880263328552,-0.09030542522668839,-0.07811957597732544,0.14095357060432434,-0.12247217056428941,-1.1069660100138918,-0.113004741079977,-11.606084395551214,-7.359363087038441,17.072569012992396,0.8008476495742798,-0.2112773358821869,0.32530540227890015,0.7006391882896423,-0.03183924779295921,0.3837319016456604,0.582638680934906,-0.09030542522668839,-0.07811957597732544,0.14095357060432434,0.9827880263328552,-0.12247216701507568,-1.1069660186767578,-0.11300474405288696,-0.2112773358821869,0.32530540227890015,0.7006391882896423,-0.27405446767807007,0.3723676800727844,0.7006391882896423,-0.3434208929538727,0.40903007984161377,0.7006391882896423,-0.41766852140426636,0.4343898296356201,0.7006391882896423,-0.4949692189693451,0.4478224515914917,0.7006391882896423,-0.573419451713562,0.4489971995353699,0.7006391882896423,-0.6510877013206482,0.4378851652145386,0.7006391882896423,-0.7260614037513733,0.41475993394851685,0.7006391882896423,-0.7964944243431091,0.380190908908844,0.7006391882896423,-0.8606525659561157,0.3350294232368469,0.7006391882896423,-0.7389581203460693,-1.5707963705062866,0.9815496206283569,0.20000000298023224,-14.999977409712011,-14.998850858150966,3.876644268665296,44230.0
0.5602,0.016,0,1,0.06757906824350357,0.354573130607605,0.07493534684181213,-0.15445169806480408,0.6819424033164978,0.7626533508300781,-0.07590920478105545,0.4077989459037781,0.6109201908111572,0.9822471141815186,-0.08815956860780716,-0.0884801596403122,0.1399567723274231,-0.10761641718069012,-0.6487568939247444,-0.1784167295303932,-11.548349607817121,-8.57719042874982,17.08747056937802,0.7933627367019653,-0.22203075885772705,0.3273692727088928,0.6877180337905884,-0.07590920478105545,0.4077989459037781,0.6109201908111572,-0.08815956860780716,-0.0884801596403122,0.1399567723274231,0.9822471141815186,-0.10761641710996628,-0.6487569212913513,-0.17841672897338867,-0.22203075885772705,0.3273692727088928,0.6877180337905884,-0.2862420082092285,0.37245529890060425,0.6877180337905884,-0.35671567916870117,0.40694135427474976,0.6877180337905884,-0.43171653151512146,0.4299783706665039,0.6877180337905884,-0.5093978047370911,0.44099897146224976,0.6877180337905884,-0.5878466367721558,0.4397318959236145,0.6877180337905884,-0.6651314496994019,0.4262083172798157,0.6877180337905884,-0.7393492460250854,0.4007612466812134,0.6877180337905884,-0.8086724281311035,0.3640172481536865,0.6877180337905884,-0.871394157409668,0.31688106060028076,0.6877180337905884,-0.6682719588279724,-1.5707963705062866,0.991188645362854,0.20000000298023224,-14.999988704856005,-14.999425429075483,3.9064473814365774,44230.0
0.5806,0.016,0,1,0.0753517672419548,0.35955947637557983,0.08387087285518646,-0.16679410636425018,0.6918195486068726,0.7626533508300781,-0.10231363773345947,0.4069777727127075,0.6006019711494446,0.9818621873855591,-0.08787936717271805,-0.09462122619152069,0.13881175220012665,-0.1721812207988385,-0.5350330910280677,-0.20813409525198995,-11.623634414823918,-9.28889984770026,17.041331257397125,0.793584942817688,-0.2421458661556244,0.3322600722312927,0.6787824630737305,-0.10231363773345947,0.4069777727127075,0.6006019711494446,-0.08787936717271805,-0.09462122619152069,0.13881175220012665,0.9818621873855591,-0.17218121886253357,-0.535033106803894,-0.20813409984111786,-0.2421458661556244,0.3322600722312927,0.6787824630737305,-0.30775025486946106,0.37529367208480835,0.6787824630737305,-0.37927892804145813,0.40753471851348877,0.6787824630737305,-0.4549705386161804,0.4281892776489258,0.6787824630737305,-0.5329613089561462,0.436748743057251,0.6787824630737305,-0.6113309264183044,0.4330023527145386,0.6787824630737305,-0.688149631023407,0.4170423746109009,0.6787824630737305,-0.7615258693695068,0.3892618417739868,0.6787824630737305,-0.8296528458595276,0.35034477710723877,0.6787824630737305,-0.8908531069755554,0.3012493848800659,0.6787824630737305,-0.7065829634666443,-1.5707963705062866,0.9913898706436157,0.20000000298023224,-14.999994352428002,-14.999712714537742,3.814168757474755,44230.0
0.6,0.0152,0,1,0.0737636610865593,0.36959779262542725,0.09494516998529434,-0.17920470237731934,0.7011289596557617,0.7626533508300781,-0.14618723094463348,0.4402443766593933,0.6111100912094116,0.9814206957817078,-0.08956152945756912,-0.09944929927587509,0.1374768167734146,-0.15635983017111169,-0.5092106150454686,-0.16212790419708706,-11.897441376522995,-9.821422994146381,16.973984927066628,0.7872357368469238,-0.25296837091445923,0.3315311670303345,0.667708158493042,-0.14618723094463348,0.4402443766593933,0.6111100912094116,-0.08956152945756912,-0.09944929927587509,0.1374768167734146,0.9814206957817078,-0.15635983645915985,-0.5092105865478516,-0.16212789714336395,-0.25296837091445923,0.3315311670303345,0.667708158493042,-0.3198762834072113,0.372508704662323,0.667708158493042,-0.3923707604408264,0.40251511335372925,0.667708158493042,-0.4686667323112488,0.42081135511398315,0.667708158493042,-0.5468855500221252,0.42694711685180664,0.667708158493042,-0.6251012086868286,0.42077118158340454,0.667708158493042,-0.7013877630233765,0.4024356007575989,0.667708158493042,-0.7738667726516724,0.3723919987678528,0.667708158493042,-0.8407536149024963,0.3313800096511841,0.667708158493042,-0.9004012942314148,0.280409574508667,0.667708158493042,-0.5880544185638428,-1.5707963705062866,0.9804145097732544,0.20000000298023224,-14.999997176214002,-14.999856357268872,3.679476096813784,44230.0
0.62,0.0163,0,1,0.07600533962249756,0.37767818570137024,0.11163702607154846,-0.19217193126678467,0.7102348208427429,0.7626533508300781,-0.1815337836742401,0.4507569968700409,0.6318165063858032,0.9811709523200989,-0.0890256017446518,-0.10384468734264374,0.1363537460565567,-0.2327783388340675,-0.28380172564559797,-0.23200570586756508,-11.909697809795889,-10.340686095168156,16.904980394922973,0.7786753177642822,-0.2681772708892822,0.3325566351413727,0.651016354560852,-0.1815337836742401,0.4507569968700409,0.6318165063858032,-0.0890256017446518,-0.10384468734264374,0.1363537460565567,0.9811709523200989,-0.23277834057807922,-0.28380173444747925,-0.23200570046901703,-0.2681772708892822,0.3325566351413727,0.651016354560852,-0.3363500237464905,0.3713935911655426,0.651016354560852,-0.40975886583328247,0.3990878164768219,0.651016354560852,-0.4865962564945221,0.4149573743343353,0.651016354560852,-0.5649702548980713,0.4186115562915802,0.651016354560852,-0.6429508924484253,0.4099603593349457,0.651016354560852,-0.7186181545257568,0.389216810464859,0.651016354560852,-0.790108859539032,0.3568917214870453,0.651016354560852,-0.8556625843048096,0.31378093361854553,0.651016354560852,-0.913665235042572,0.2609460651874542,0.651016354560852,-0.5708949565887451,-1.5707963705062866,0.9806119203567505,0.20000000298023224,-14.999998588107001,-14.999928178634436,3.541467032526447,44230.0
0.6401,0.0167,1,1,0.07190120220184326,0.38695859909057617,0.12454966455698013,-0.20535875856876373,0.7188857197761536,0.7626533508300781,-0.231208935379982,0.48116812109947205,0.6499730944633484,0.980935275554657,-0.09033356606960297,-0.10758832842111588,0.13427041471004486,-0.18807348480107502,-0.36181883004238746,-0.18995520784829775,-12.11112050052466,-10.767034743935929,16.73394194927709,0.7708598971366882,-0.2772599458694458,0.3319271206855774,0.6381036639213562,-0.231208935379982,0.48116812109947205,0.6499730944633484,-0.09033356606960297,-0.10758832842111588,0.13427041471004486,0.980935275554657,-0.18807348608970642,-0.3618188202381134,-0.1899552047252655,-0.2772599458694458,0.3319271206855774,0.6381036639213562,-0.34662362933158875,0.3685946464538574,0.6381036639213562,-0.4208694100379944,0.3939598798751831,0.6381036639213562,-0.49816909432411194,0.4073982834815979,0.6381036639213562,-0.5766192674636841,0.4085788130760193,0.6381036639213562,-0.6542883515357971,0.3974725604057312,0.6381036639213562,-0.7292637228965759,0.37435293197631836,0.6381036639213562,-0.7996993660926819,0.33978915214538574,0.6381036639213562,-0.8638608455657959,0.2946323752403259,0.6381036639213562,-0.9201683402061462,0.23999452590942383,0.6381036639213562,-0.4919469356536865,-1.5707963705062866,0.968993067741394,0.20000000298023224,-14.9999992940535,-14.999964089317217,3.199390141234678,44230.0
0.6598,0.0163,1,1,0.0647270455956459,0.40410375595092773,0.14546620845794678,-0.21854372322559357,0.7269579768180847,0.7626533508300781,-0.2850486636161804,0.5468429923057556,0.7226679921150208,0.9804911017417908,-0.09346447885036469,-0.11071296781301498,0.13282422721385956,-0.12360153395880795,-0.23330452953119674,-0.20797086012192492,-12.51745974966933,-11.085724391039859,16.648980021199417,0.7519289255142212,-0.28327077627182007,0.322854220867157,0.6171871423721313,-0.2850486636161804,0.5468429923057556,0.7226679921150208,-0.09346447885036469,-0.11071296781301498,0.13282422721385956,0.9804911017417908,-0.123601533472538,-0.23330453038215637,-0.20797085762023926,-0.28327077627182007,0.322854220867157,0.6171871423721313,-0.35373491048812866,0.3573598265647888,0.6171871423721313,-0.4287293553352356,0.38041752576828003,0.6171871423721313,-0.5064075589179993,0.39145970344543457,0.6171871423721313,-0.5848568081855774,0.39021432399749756,0.6171871423721313,-0.6621453762054443,0.37671220302581787,0.6171871423721313,-0.7363701462745667,0.3512856364250183,0.6171871423721313,-0.8057035207748413,0.31456083059310913,0.6171871423721313,-0.8684383034706116,0.2674420475959778,0.6171871423721313,-0.9230296611785889,0.21108949184417725,0.6171871423721313,-0.18460965156555176,-1.5707963705062866,0.9712260961532593,0.20000000298023224,-12.788676593070154,-14.999982044658609,3.0294662850793657,44230.0
0.6801,0.0158,1,1,0.05946021154522896,0.41731953620910645,0.15655720233917236,-0.23229481279850006,0.7347962260246277,0.7626533508300781,-0.323326975107193,0.5892716646194458,0.7104190587997437,0.9802581667900085,-0.09538397938013077,-0.11296963691711426,0.1312694549560547,-0.1608321598134658,-0.290671382966971,-0.19310361353374625,-12.765776484107402,-11.328670407230451,16.52591541666743,0.7438178658485413,-0.2917550206184387,0.31747668981552124,0.6060961484909058,-0.323326975107193,0.5892716646194458,0.7104190587997437,-0.09538397938013077,-0.11296963691711426,0.1312694549560547,0.9802581667900085,-0.16083216667175293,-0.29067137837409973,-0.1931036114692688,-0.2917550206184387,0.31747668981552124,0.6060961484909058,-0.36327606439590454,0.34973466396331787,0.6060961484909058,-0.43896278738975525,0.3704071044921875,0.6060961484909058,-0.5169515609741211,0.3789849877357483,0.6060961484909058,-0.5953220129013062,0.3752571940422058,0.6060961484909058,-0.6721444725990295,0.3593153953552246,0.6060961484909058,-0.7455272674560547,0.3315522074699402,0.6060961484909058,-0.8136634826660156,0.2926512360572815,0.6060961484909058,-0.8748754262924194,0.24357032775878906,0.6060961484909058,-0.9276557564735413,0.1855180859565735,0.6060961484909058,0.07797372341156006,-1.5707963705062866,0.9814778566360474,0.20000000298023224,-4.160555664333671,-14.999991022329304,2.783337076015378,44230.0
0.6999,0.0158,1,1,0.06956331431865692,0.4177607297897339,0.15369679033756256,-0.24614180624485016,0.7421213984489441,0.7626533508300781,-0.29569900035858154,0.5596052408218384,0.6200482845306396,0.9810346364974976,-0.09259656816720963,-0.11136899888515472,0.12880924344062805,-0.07759105687902569,-0.2643511288871225,-0.1915443992945321,-12.38468754229887,-11.224810025515385,16.181946542892472,0.7587540149688721,-0.3157051205635071,0.3243606686592102,0.6089565753936768,-0.29569900035858154,0.5596052408218384,0.6200482845306396,-0.09259656816720963,-0.11136899888515472,0.12880924344062805,0.9810346364974976,-0.07759105414152145,-0.26435112953186035,-0.19154439866542816,-0.3157051205635071,0.3243606686592102,0.6089565753936768,-0.3882015347480774,0.35436224937438965,0.6089565753936768,-0.46449875831604004,0.3726535439491272,0.6089565753936768,-0.5427179336547852,0.3787841796875,0.6089565753936768,-0.6209331750869751,0.37260305881500244,0.6089565753936768,-0.6972185373306274,0.3542625904083252,0.6089565753936768,-0.7696956396102905,0.3242141604423523,0.6089565753936768,-0.8365797400474548,0.283197820186615,0.6089565753936768,-0.8962240815162659,0.23222345113754272,0.6089565753936768,-0.9471599459648132,0.17254626750946045,0.6089565753936768,-0.11362898349761963,-1.5707963705062866,0.968114972114563,0.20000000298023224,-5.335508424554478,-14.999995511164652,2.0953993284654717,44230.0
0.7208,0.016,1,1,0.06928251683712006,0.43410634994506836,0.17023396492004395,-0.2603878378868103,0.7490920424461365,0.7626533508300781,-0.335000216960907,0.6133455038070679,0.6684774160385132,0.981176495552063,-0.092589370906353,-0.11267384886741638,0.12657959759235382,0.42936158871384084,-0.5297134933296617,-0.07214743909760604,-12.38318369458772,-11.400506947921567,15.942840702489434,0.7475689053535461,-0.32967036962509155,0.3149856925010681,0.5924193859100342,-0.335000216960907,0.6133455038070679,0.6684774160385132,-0.092589370906353,-0.11267384886741638,0.12657959759235382,0.981176495552063,0.42936158180236816,-0.52971351146698,-0.072147436439991,-0.32967036962509155,0.3149856925010681,0.5924193859100342,-0.40308183431625366,0.3426728844642639,0.5924193859100342,-0.47992074489593506,0.35853517055511475,0.5924193859100342,-0.5582950711250305,0.3621819019317627,0.5924193859100342,-0.6362749338150024,0.35352325439453125,0.5924193859100342,-0.7119402289390564,0.33277249336242676,0.5924193859100342,-0.7834277749061584,0.30044054985046387,0.5924193859100342,-0.8489774465560913,0.25732356309890747,0.5924193859100342,-0.9069750308990479,0.20448315143585205,0.5924193859100342,-0.9559925198554993,0.14322048425674438,0.5924193859100342,-0.045026183128356934,-1.5707963705062866,0.9370318651199341,0.20000000298023224,-3.9576593426962416,-14.999997755582326,1.6171876476594007,44230.0
0.7397,0.0153,1,1,0.06515438854694366,0.44692474603652954,0.1779041886329651,-0.27446168661117554,0.7554405331611633,0.7626533508300781,-0.37365543842315674,0.6376247406005859,0.6506201028823853,0.9812844395637512,-0.08778198808431625,-0.11627623438835144,0.12590894103050232,0.8821187147088916,-0.3459973561908766,-0.12662105929225342,-11.88691123633584,-11.893609430658943,15.865973641945102,0.7432715892791748,-0.339616060256958,0.3085157871246338,0.584749162197113,-0.37365543842315674,0.6376247406005859,0.6506201028823853,-0.08778198808431625,-0.11627623438835144,0.12590894103050232,0.9812844395637512,0.8821187019348145,-0.3459973633289337,-0.1266210526227951,-0.339616060256958,0.3085157871246338,0.584749162197113,-0.4138473868370056,0.33392322063446045,0.584749162197113,-0.49113941192626953,0.34740549325942993,0.584749162197113,-0.5695889592170715,0.3486306071281433,0.584749162197113,-0.647264301776886,0.337568461894989,0.584749162197113,-0.7222528457641602,0.3144914507865906,0.584749162197113,-0.7927080988883972,0.279967725276947,0.584749162197113,-0.8568952083587646,0.23484736680984497,0.584749162197113,-0.9132336974143982,0.18024152517318726,0.584749162197113,-0.9603363275527954,0.11749464273452759,0.584749162197113,0.028376221656799316,-1.5707963705062866,0.9353400468826294,0.20000000298023224,-1.1659108016169584,-14.999998877791164,1.4634535265706998,44230.0
0.7602,0.0157,1,1,0.061622634530067444,0.46836400032043457,0.2092565894126892,-0.2891746759414673,0.7615295648574829,0.7626533508300781,-0.4246273338794708,0.7073848247528076,0.7879769206047058,0.9821293950080872,-0.07958240807056427,-0.11576743423938751,0.12523728609085083,1.0496016532916395,-0.037927221410849324,-0.22747966359497543,-10.920043224005001,-11.973767509530106,15.682458583201557,0.717811107635498,-0.35079729557037354,0.29316556453704834,0.5533967614173889,-0.4246273338794708,0.7073848247528076,0.7879769206047058,-0.07958240807056427,-0.11576743423938751,0.12523728609085083,0.9821293950080872,1.049601674079895,-0.03792722150683403,-0.22747966647148132,-0.35079729557037354,0.29316556453704834,0.5533967614173889,-0.42580002546310425,0.31619638204574585,0.5533967614173889,-0.5034821629524231,0.3272106647491455,0.5533967614173889,-0.581930935382843,0.3259371519088745,0.5533967614173889,-0.6592146158218384,0.3124072551727295,0.5533967614173889,-0.7334303259849548,0.2869541049003601,0.5533967614173889,-0.8027505278587341,0.2502044439315796,0.5533967614173889,-0.8654683828353882,0.20306313037872314,0.5533967614173889,-0.9200395345687866,0.1466909646987915,0.5533967614173889,-0.965120255947113,0.08247607946395874,0.5533967614173889,0.3606414794921875,-1.5707963705062866,0.930540919303894,0.20000000298023224,6.917044599191522,-14.999999438895582,1.0964234090836162,44230.0
0.7801,0.0158,1,1,0.05888592451810837,0.4838288426399231,0.21538212895393372,-0.3038026690483093,0.7670494318008423,0.7626533508300781,-0.42895352840423584,0.7363927960395813,0.7226086854934692,0.9834254384040833,-0.06942745298147202,-0.11312061548233032,0.12351536750793457,1.1221333116331382,-0.15878264097281128,-0.14946954999604736,-9.676170358402516,-11.849442093179178,15.32389237950095,0.7150264382362366,-0.3626886010169983,0.2832205891609192,0.5472712516784668,-0.42895352840423584,0.7363927960395813,0.7226086854934692,-0.06942745298147202,-0.11312061548233032,0.12351536750793457,0.9834254384040833,1.1221332550048828,-0.15878264605998993,-0.1494695544242859,-0.3626886010169983,0.2832205891609192,0.5472712516784668,-0.43837475776672363,0.30389517545700073,0.5472712516784668,-0.516363263130188,0.3124752640724182,0.5472712516784668,-0.5947338938713074,0.30874961614608765,0.5472712516784668,-0.6715567708015442,0.29281002283096313,0.5472712516784668,-0.7449403405189514,0.2650488615036011,0.5472712516784668,-0.8130776286125183,0.2261497974395752,0.5472712516784668,-0.874290943145752,0.17707061767578125,0.5472712516784668,-0.9270728826522827,0.11901980638504028,0.5472712516784668,-0.970123827457428,0.05342680215835571,0.5472712516784668,0.5189176797866821,-1.5707963705062866,0.929092526435852,0.20000000298023224,10.95852229959576,-14.999999719447791,0.3792910016824344,44230.0
0.8004,0.016,1,1,0.0366937555372715,0.48651665449142456,0.23948898911476135,-0.3186970353126526,0.7721420526504517,0.7626533508300781,-0.5341418385505676,0.6909242868423462,0.8200799226760864,0.9838418364524841,-0.052487216889858246,-0.11757869273424149,0.12439311295747757,1.3005615094009757,-0.2031147023874631,-0.10983498017153744,-7.805206046704362,-12.609178602690527,15.275664510974174,0.6939635872840881,-0.3553907871246338,0.2856253981590271,0.5231643915176392,-0.5341418385505676,0.6909242868423462,0.8200799226760864,-0.052487216889858246,-0.11757869273424149,0.12439311295747757,0.9838418364524841,1.300561547279358,-0.20311470329761505,-0.10983497649431229,-0.3553907871246338,0.2856253981590271,0.5231643915176392,-0.4316902160644531,0.30390727519989014,0.5231643915176392,-0.5099102258682251,0.31002819538116455,0.5231643915176392,-0.588124692440033,0.30383747816085815,0.5231643915176392,-0.6644077301025391,0.2854875326156616,0.5231643915176392,-0.7368810772895813,0.2554301619529724,0.5231643915176392,-0.8037601709365845,0.21440553665161133,0.5231643915176392,-0.8633981943130493,0.1634238362312317,0.5231643915176392,-0.9143266677856445,0.10374033451080322,0.5231643915176392,-0.9552915692329407,0.03682464361190796,0.5231643915176392,0.1126779317855835,-1.5707963705062866,0.8799635171890259,0.20000000298023224,8.70724611758634,-14.999999859723896,0.2828352646288889,44230.0
0.8208,0.0159,1,1,0.024595657363533974,0.50091153383255,0.25209754705429077,-0.3339216709136963,0.7768146991729736,0.7626533508300781,-0.5870566368103027,0.7090619206428528,0.8132308721542358,0.9844515919685364,-0.03958778455853462,-0.11724244058132172,0.12466005235910416,1.8029247710992007,-0.1741656419955974,-0.13373382160925865,-6.3090814765347165,-12.765952448877817,15.140242409091774,0.6821469664573669,-0.3585173189640045,0.2759031653404236,0.5105558037757874,-0.5870566368103027,0.7090619206428528,0.8132308721542358,-0.03958778455853462,-0.11724244058132172,0.12466005235910416,0.9844515919685364,1.8029247522354126,-0.17416563630104065,-0.1337338238954544,-0.3585173189640045,0.2759031653404236,0.5105558037757874,-0.43536028265953064,0.2917458415031433,0.5105558037757874,-0.5137355327606201,0.2953726053237915,0.5105558037757874,-0.5917131900787354,0.28669410943984985,0.5105558037757874,-0.6673731803894043,0.26592403650283813,0.5105558037757874,-0.7388525009155273,0.23357391357421875,0.5105558037757874,-0.8043911457061768,0.19044017791748047,0.5105558037757874,-0.8623753190040588,0.13758504390716553,0.5105558037757874,-0.9113771915435791,0.07630985975265503,0.5105558037757874,-0.9501902461051941,0.008123576641082764,0.5105558037757874,0.0951693058013916,-1.5707963705062866,0.8689407110214233,0.20000000298023224,7.08002283959799,-14.999999929861948,0.01199106086407074,44230.0
0.8402,0.0173,1,1,0.020249076187610626,0.5095866322517395,0.2692515552043915,-0.3489534556865692,0.7809147238731384,0.7626533508300781,-0.5849915146827698,0.6886557936668396,0.8004696369171143,0.9856544137001038,-0.018635762855410576,-0.1126733124256134,0.12426141649484634,2.1993936904789866,-0.24141814939774578,-0.04995334116910421,-3.8030094530941585,-12.561209994674726,14.789417369159803,0.673331081867218,-0.36920252442359924,0.2713280916213989,0.49340179562568665,-0.5849915146827698,0.6886557936668396,0.8004696369171143,-0.018635762855410576,-0.1126733124256134,0.12426141649484634,0.9856544137001038,2.1993937492370605,-0.24141815304756165,-0.049953341484069824,-0.36920252442359924,0.2713280916213989,0.49340179562568665,-0.44650179147720337,0.28476881980895996,0.49340179562568665,-0.5249519348144531,0.28595179319381714,0.49340179562568665,-0.60262131690979,0.2748478651046753,0.49340179562568665,-0.6775974631309509,0.2517305016517639,0.49340179562568665,-0.7480341196060181,0.2171688675880432,0.49340179562568665,-0.8121969699859619,0.172014057636261,0.49340179562568665,-0.868506133556366,0.1173778772354126,0.49340179562568665,-0.9155750274658203,0.054605722427368164,0.49340179562568665,-0.9522446990013123,-0.014756858348846436,0.49340179562568665,-0.2544466257095337,-1.5707963705062866,0.8133329153060913,0.20000000298023224,-3.7493474624516177,-14.999999964930975,-0.6896590189998786,44230.0
0.8599,0.0163,1,1,0.014697875827550888,0.5228583216667175,0.27046120166778564,-0.3640490770339966,0.7845317721366882,0.7626533508300781,-0.6137440204620361,0.6761620044708252,0.773232638835907,0.9859101176261902,0.0034191710874438286,-0.11112738400697708,0.12497284263372421,2.0022269586491337,-0.09119882800867864,-0.0848089391576834,-1.2355064348361247,-12.707730937674883,14.585991917244826,0.6739253401756287,-0.37874695658683777,0.2616734504699707,0.4921921491622925,-0.6137440204620361,0.6761620044708252,0.773232638835907,0.0034191710874438286,-0.11112738400697708,0.12497284263372421,0.9859101176261902,2.0022270679473877,-0.09119882434606552,-0.08480893820524216,-0.37874695658683777,0.2616734504699707,0.4921921491622925,-0.456426203250885,0.27270811796188354,0.4921921491622925,-0.5348752737045288,0.2714552879333496,0.4921921491622925,-0.6121625304222107,0.257945716381073,0.4921921491622925,-0.686384916305542,0.23251205682754517,0.4921921491622925,-0.7557147741317749,0.19578057527542114,0.4921921491622925,-0.8184449672698975,0.14865577220916748,0.4921921491622925,-0.873030960559845,0.09229797124862671,0.4921921491622925,-0.9181286096572876,0.028094947338104248,0.4921921491622925,-0.952627420425415,-0.04237249493598938,0.4921921491622925,-0.16221702098846436,-1.5707963705062866,0.8291910886764526,0.20000000298023224,-6.521849065137859,-14.999999982465487,-1.096509922829845,44230.0
0.88,0.0162,1,1,0.0030662280041724443,0.5332844853401184,0.28283098340034485,-0.3795517683029175,0.7877359986305237,0.7626533508300781,-0.6501997113227844,0.6595696210861206,0.7778933048248291,0.9859256148338318,0.023312818259000778,-0.10906511545181274,0.12453922629356384,1.249050647596663,0.008165777252319855,-0.06776639762399278,1.1047181402847088,-12.759955452893811,14.275054715430828,0.6643580794334412,-0.3826180100440979,0.2544515132904053,0.4798223674297333,-0.6501997113227844,0.6595696210861206,0.7778933048248291,0.023312818259000778,-0.10906511545181274,0.12453922629356384,0.9859256148338318,1.2490506172180176,0.008165777660906315,-0.06776639819145203,-0.3826180100440979,0.2544515132904053,0.4798223674297333,-0.460607647895813,0.2630215883255005,0.4798223674297333,-0.5389777421951294,0.25928592681884766,0.4798223674297333,-0.6157986521720886,0.24333643913269043,0.4798223674297333,-0.6891786456108093,0.21556591987609863,0.4798223674297333,-0.7573109865188599,0.17665809392929077,0.4798223674297333,-0.8185179233551025,0.12757110595703125,0.4798223674297333,-0.8712924718856812,0.06951349973678589,0.4798223674297333,-0.9143350124359131,0.003915011882781982,0.4798223674297333,-0.9465857744216919,-0.06760925054550171,0.4798223674297333,0.04337799549102783,-1.5707963705062866,0.836966872215271,0.20000000298023224,-2.0182364998822244,-14.999999991232745,-1.718384326457849,44230.0
0.9007,0.0167,1,1,-0.007634294684976339,0.5491394996643066,0.3007757067680359,-0.39509087800979614,0.7904388308525085,0.7626533508300781,-0.6854249238967896,0.6495253443717957,0.8188596963882446,0.986007034778595,0.03382047265768051,-0.10660616308450699,0.12360969930887222,0.07542578207711517,-0.09814111472640516,-0.02113896598818005,2.3692281519058773,-12.626226320533377,14.028908984870698,0.6493681073188782,-0.38745659589767456,0.2412993311882019,0.46187764406204224,-0.6854249238967896,0.6495253443717957,0.8188596963882446,0.03382047265768051,-0.10660616308450699,0.12360969930887222,0.986007034778595,0.07542578130960464,-0.09814111143350601,-0.02113896608352661,-0.38745659589767456,0.2412993311882019,0.46187764406204224,-0.46567773818969727,0.2474052906036377,0.46187764406204224,-0.5438910126686096,0.24119961261749268,0.46187764406204224,-0.6201705932617188,0.22283506393432617,0.46187764406204224,-0.6926382184028625,0.19276386499404907,0.46187764406204224,-0.7595094442367554,0.15172648429870605,0.46187764406204224,-0.819137692451477,0.10073333978652954,0.46187764406204224,-0.8700547814369202,0.041040122509002686,0.46187764406204224,-0.9110068678855896,-0.025883376598358154,0.46187764406204224,-0.9409856796264648,-0.09838923811912537,0.46187764406204224,0.5372992753982544,-1.5707963705062866,0.850070595741272,0.20000000298023224,6.490881750058888,-14.999999995616372,-2.210675787578072,44230.0
0.92,0.016,1,1,-0.018887970596551895,0.5629584193229675,0.3099120259284973,-0.4106282591819763,0.7926402688026428,0.7626533508300781,-0.7149051427841187,0.6308283805847168,0.7981897592544556,0.9862966537475586,0.032938018441200256,-0.10624765604734421,0.12183374166488647,-0.8114012017019547,-0.15057835711590184,-0.028553291767339315,2.2949560714173667,-12.568656684180228,13.830953797476168,0.6412401795387268,-0.3917402923107147,0.2296818494796753,0.4527413249015808,-0.7149051427841187,0.6308283805847168,0.7981897592544556,0.032938018441200256,-0.10624765604734421,0.12183374166488647,0.9862966537475586,-0.8114011883735657,-0.1505783498287201,-0.028553292155265808,-0.3917402923107147,0.2296818494796753,0.4527413249015808,-0.470114529132843,0.2333301305770874,0.4527413249015808,-0.5480945110321045,0.2246730923652649,0.4527413249015808,-0.6237602233886719,0.20392382144927979,0.4527413249015808,-0.6952484846115112,0.1715933084487915,0.4527413249015808,-0.7607989311218262,0.12847763299942017,0.4527413249015808,-0.8187976479530334,0.07563841342926025,0.4527413249015808,-0.8678163886070251,0.01437675952911377,0.4527413249015808,-0.9066481590270996,-0.05379891395568848,0.4527413249015808,-0.9343368411064148,-0.12720987200737,0.4527413249015808,0.995773434638977,-1.5707963705062866,0.8512471914291382,0.20000000298023224,10.745440875029445,-14.999999997808185,-2.6065861623671407,44230.0
0.9402,0.0159,1,1,-0.025757722556591034,0.5835253000259399,0.3407451808452606,-0.42598772048950195,0.7943304777145386,0.7626533508300781,-0.7316051125526428,0.638763964176178,0.8740134835243225,0.9869893789291382,0.02445441484451294,-0.10542254894971848,0.11890342086553574,-0.5270901797873927,-0.06556606480304489,-0.03260016478079648,1.3610237903594855,-12.352015398486685,13.591417062587603,0.6185704469680786,-0.4002299904823303,0.21080517768859863,0.4219081699848175,-0.7316051125526428,0.638763964176178,0.8740134835243225,0.02445441484451294,-0.10542254894971848,0.11890342086553574,0.9869893789291382,-0.5270901918411255,-0.0655660629272461,-0.03260016441345215,-0.4002299904823303,0.21080517768859863,0.4219081699848175,-0.4786795377731323,0.21202993392944336,0.4219081699848175,-0.556354820728302,0.20096737146377563,0.4219081699848175,-0.6313431859016418,0.177889883518219,0.4219081699848175,-0.7017982602119446,0.1433658003807068,0.4219081699848175,-0.7659851312637329,0.09824514389038086,0.4219081699848175,-0.8223233819007874,0.04363894462585449,0.4219081699848175,-0.8694256544113159,-0.019108176231384277,0.4219081699848175,-0.9061322808265686,-0.08845120668411255,0.4219081699848175,-0.9315392971038818,-0.1626826822757721,0.4219081699848175,1.4457699060440063,-1.5707963705062866,0.8151315450668335,0.20000000298023224,12.872720437514722,-14.999999998904093,-3.085659632144272,44230.0
0.9605,0.0156,1,1,-0.03810606151819229,0.5971114635467529,0.3499302864074707,-0.44186675548553467,0.7955750823020935,0.7626533508300781,-0.7534080147743225,0.6294686794281006,0.8382166624069214,0.9872292280197144,0.020636577159166336,-0.10641185194253922,0.11673538386821747,0.5619682024245882,-0.1488674924973645,0.011753896841172945,0.9329607546306248,-12.41105793803353,13.385833427663785,0.6105332374572754,-0.403760701417923,0.19846361875534058,0.4127230644226074,-0.7534080147743225,0.6294686794281006,0.8382166624069214,0.020636577159166336,-0.10641185194253922,0.11673538386821747,0.9872292280197144,0.561968207359314,-0.14886748790740967,0.011753897182643414,-0.403760701417923,0.19846361875534058,0.4127230644226074,-0.4822094738483429,0.19718903303146362,0.4127230644226074,-0.5594929456710815,0.18365800380706787,0.4127230644226074,-0.6337082386016846,0.15820378065109253,0.4127230644226074,-0.7030279040336609,0.12145310640335083,0.4127230644226074,-0.7657450437545776,0.07431089878082275,0.4127230644226074,-0.820315420627594,0.017937958240509033,0.4127230644226074,-0.8653952479362488,-0.046277642250061035,0.4127230644226074,-0.8998745083808899,-0.11675462126731873,0.4127230644226074,-0.9229042530059814,-0.1917577087879181,0.4127230644226074,1.3535979986190796,-1.5707963705062866,0.8575378656387329,0.20000000298023224,13.936360218757361,-14.999999999452047,-3.496826901991929,44230.0
0.9805,0.0155,1,1,-0.041986916214227676,0.6224015355110168,0.38198721408843994,-0.457457035779953,0.7963034510612488,0.7626533508300781,-0.7468926906585693,0.6749358773231506,0.933360755443573,0.9876600503921509,0.024437692016363144,-0.10251825302839279,0.11583811044692993,1.45367369784652,-0.20809358191390712,0.016731427102017808,1.4365809128145866,-12.01501381910198,13.227579550563737,0.5897151827812195,-0.4154701232910156,0.17390191555023193,0.3806661367416382,-0.7468926906585693,0.6749358773231506,0.933360755443573,0.024437692016363144,-0.10251825302839279,0.11583811044692993,0.9876600503921509,1.4536737203598022,-0.2080935835838318,0.01673142798244953,-0.4154701232910156,0.17390191555023193,0.3806661367416382,-0.4938408434391022,0.17017948627471924,0.3806661367416382,-0.5706643462181091,0.15424299240112305,0.3806661367416382,-0.6440490484237671,0.12648487091064453,0.3806661367416382,-0.7121879458427429,0.08758854866027832,0.3806661367416382,-0.7734032273292542,0.03851187229156494,0.3806661367416382,-0.8261875510215759,-0.01953679323196411,0.3806661367416382,-0.8692411780357361,-0.0851280689239502,0.3806661367416382,-0.9015040397644043,-0.15664684772491455,0.3806661367416382,-0.9221816658973694,-0.23233214020729065,0.3806661367416382,1.5707963705062866,-1.5707963705062866,0.9025148153305054,0.20000000298023224,14.46818010937868,-14.999999999726024,-3.8133346561920116,44230.0
1.0008,0.0156,1,1,-0.05505518615245819,0.636504590511322,0.39250919222831726,-0.473254919052124,0.7965448498725891,0.7626533508300781,-0.7513855695724487,0.6545898914337158,0.879030168056488,0.987266480922699,0.04000977799296379,-0.10043511539697647,0.11668245494365692,1.7110976451327236,-0.24159897803576216,0.03759376451404698,3.256190715934834,-11.984632097984319,13.138824163386658,0.5809566378593445,-0.41819971799850464,0.1600402593612671,0.37014415860176086,-0.7513855695724487,0.6545898914337158,0.879030168056488,0.04000977799296379,-0.10043511539697647,0.11668245494365692,0.987266480922699,1.7110975980758667,-0.241598978638649,0.03759376332163811,-0.41819971799850464,0.1600402593612671,0.37014415860176086,-0.4964137077331543,0.15384352207183838,0.37014415860176086,-0.5726953744888306,0.13548767566680908,0.37014415860176086,-0.6451664566993713,0.10542476177215576,0.37014415860176086,-0.7120423316955566,0.064395010471344,0.37014415860176086,-0.7716764211654663,0.013408660888671875,0.37014415860176086,-0.8226003050804138,-0.04627877473831177,0.37014415860176086,-0.8635600805282593,-0.11319756507873535,0.37014415860176086,-0.8935471177101135,-0.18570002913475037,0.37014415860176086,-0.9118231534957886,-0.2620008587837219,0.37014415860176086,1.5707963705062866,-1.5707963705062866,0.9173074960708618,0.20000000298023224,14.73409005468934,-14.999999999863011,-3.9908454305461545,44230.0
1.0211,0.0154,1,1,-0.059066083282232285,0.6645967364311218,0.4359860122203827,-0.4889791011810303,0.796289324760437,0.7626533508300781,-0.752174437046051,0.7003503441810608,1.1143428087234497,0.9871566891670227,0.05333783105015755,-0.09435013681650162,0.11735758185386658,1.5879611989687843,0.009596516855478292,-0.005101704307859008,4.867617542117823,-11.466557428334928,13.07048454496586,0.5557694435119629,-0.4299130141735077,0.13169258832931519,0.32666733860969543,-0.752174437046051,0.7003503441810608,1.1143428087234497,0.05333783105015755,-0.09435013681650162,0.11735758185386658,0.9871566891670227,1.587961196899414,0.00959651730954647,-0.005101704504340887,-0.4299130141735077,0.13169258832931519,0.32666733860969543,-0.507893443107605,0.1230391263961792,0.32666733860969543,-0.5835601687431335,0.10229343175888062,0.32666733860969543,-0.6550499200820923,0.06996631622314453,0.32666733860969543,-0.7206023931503296,0.02685368061065674,0.32666733860969543,-0.7786035537719727,-0.02598285675048828,0.32666733860969543,-0.8276251554489136,-0.08724218606948853,0.32666733860969543,-0.8664601445198059,-0.1554160714149475,0.32666733860969543,-0.8941522836685181,-0.22882568836212158,0.32666733860969543,-0.9100196957588196,-0.3056635558605194,0.32666733860969543,1.5707963705062866,-1.5707963705062866,0.9625064134597778,0.20000000298023224,14.86704502734467,-14.999999999931505,-4.127524667387776,44230.0
1.0418,0.017,1,1,-0.11718857288360596,0.6278418302536011,0.44275322556495667,-0.5045734643936157,0.7955465912818909,0.7626533508300781,-1.000097632408142,0.40177249908447266,1.0780521631240845,0.9831351041793823,0.08417010307312012,-0.1075362116098404,0.1216336116194725,1.2751538873371837,-0.06953642186943271,-0.010826222126146671,8.235769712957012,-13.410199976063994,13.135703320995068,0.5296489596366882,-0.38738489151000977,0.1677047610282898,0.31990012526512146,-1.000097632408142,0.40177249908447266,1.0780521631240845,0.08417010307312012,-0.1075362116098404,0.1216336116194725,0.9831351041793823,1.2751538753509521,-0.06953642517328262,-0.01082622166723013,-0.38738489151000977,0.1677047610282898,0.31990012526512146,-0.4650571346282959,0.1566210389137268,0.31990012526512146,-0.5400392413139343,0.1335231065750122,0.31990012526512146,-0.6104848980903625,0.09897977113723755,0.31990012526512146,-0.6746594905853271,0.053841590881347656,0.31990012526512146,-0.730982780456543,-0.0007799863815307617,0.31990012526512146,-0.778067946434021,-0.06353998184204102,0.31990012526512146,-0.8147556185722351,-0.13289302587509155,0.31990012526512146,-0.8401423692703247,-0.20713144540786743,0.31990012526512146,-0.8536031246185303,-0.2844272255897522,0.31990012526512146,0.42085862159729004,-1.5707963705062866,0.7896124124526978,0.20000000298023224,14.933522513672335,-14.999999999965752,-3.9970871153293692,44230.0
1.0609,0.0165,1,1,-0.13751302659511566,0.635356605052948,0.4644778072834015,-0.5203291773796082,0.7942991852760315,0.7626533508300781,-1.040737509727478,0.356947660446167,1.0934767723083496,0.9818770289421082,0.09652324765920639,-0.10729296505451202,0.1228288784623146,1.0235775760145214,-0.1361339289626653,-0.003790645187523861,9.663865144541484,-13.556769058454305,13.109489887588206,0.5106070637702942,-0.3828161358833313,0.1589425802230835,0.29817554354667664,-1.040737509727478,0.356947660446167,1.0934767723083496,0.09652324765920639,-0.10729296505451202,0.1228288784623146,0.9818770289421082,1.0235775709152222,-0.13613392412662506,-0.0037906451616436243,-0.3828161358833313,0.1589425802230835,0.29817554354667664,-0.4600992798805237,0.14540940523147583,0.29817554354667664,-0.5343139171600342,0.11995315551757812,0.29817554354667664,-0.6036325693130493,0.08320057392120361,0.29817554354667664,-0.666348397731781,0.03605663776397705,0.29817554354667664,-0.7209172248840332,-0.020317792892456055,0.29817554354667664,-0.7659952640533447,-0.08453458547592163,0.29817554354667664,-0.800472617149353,-0.15501254796981812,0.29817554354667664,-0.8235002756118774,-0.23001626133918762,0.29817554354667664,-0.8345113396644592,-0.3076988756656647,0.29817554354667664,0.39684736728668213,-1.5707963705062866,0.7843843698501587,0.20000000298023224,14.966761256836168,-14.999999999982876,-4.049513982143058,44230.0
1.081,0.0168,1,1,-0.1647711545228958,0.6521316766738892,0.4947660565376282,-0.5359804034233093,0.7925616502761841,0.7626533508300781,-1.117686152458191,0.3612905740737915,1.1566898822784424,0.9809677600860596,0.10249859094619751,-0.10841845721006393,0.12425672262907028,0.863505682113246,-0.22656228782322718,0.06203382270311033,10.329731163988386,-13.779283048233324,13.186620286619783,0.4788324236869812,-0.3712092638015747,0.14042997360229492,0.26788729429244995,-1.117686152458191,0.3612905740737915,1.1566898822784424,0.10249859094619751,-0.10841845721006393,0.12425672262907028,0.9809677600860596,0.8635056614875793,-0.2265622913837433,0.062033820897340775,-0.3712092638015747,0.14042997360229492,0.26788729429244995,-0.44802790880203247,0.12446987628936768,0.26788729429244995,-0.5214040875434875,0.09668910503387451,0.26788729429244995,-0.5895310044288635,0.05777186155319214,0.26788729429244995,-0.6507311463356018,0.008676350116729736,0.26788729429244995,-0.703497588634491,-0.04938852787017822,0.26788729429244995,-0.746531069278717,-0.11499303579330444,0.26788729429244995,-0.7787718772888184,-0.1865217685699463,0.26788729429244995,-0.7994261980056763,-0.26221343874931335,0.26788729429244995,-0.8079854846000671,-0.34020426869392395,0.26788729429244995,1.0104624032974243,-1.5707963705062866,0.8025187253952026,0.20000000298023224,14.983380628418084,-14.999999999991438,-3.8952531840799147,44230.0
1.1003,0.0172,1,1,-0.18649625778198242,0.6613172888755798,0.5091745853424072,-0.5515305399894714,0.7903382778167725,0.7626533508300781,-1.14667809009552,0.3334476053714752,1.119746446609497,0.9799991846084595,0.10884036123752594,-0.10831037163734436,0.12657900154590607,0.661931684995421,0.10746647288894025,-0.02228735017854664,11.040144463072163,-13.87721292199538,13.371726353277614,0.46276119351387024,-0.365034282207489,0.12902098894119263,0.2534787654876709,-1.14667809009552,0.3334476053714752,1.119746446609497,0.10884036123752594,-0.10831037163734436,0.12657900154590607,0.9799991846084595,0.6619316935539246,0.10746647417545319,-0.02228735014796257,-0.365034282207489,0.12902098894119263,0.2534787654876709,-0.44131362438201904,0.11065566539764404,0.2534787654876709,-0.5137808918952942,0.08058369159698486,0.2534787654876709,-0.5806517004966736,0.03954559564590454,0.2534787654876709,-0.6402794718742371,-0.011448144912719727,0.2534787654876709,-0.6911959052085876,-0.07114189863204956,0.2534787654876709,-0.7321472764015198,-0.13806581497192383,0.2534787654876709,-0.7621253132820129,-0.2105720341205597,0.2534787654876709,-0.7803918123245239,-0.2868751585483551,0.2534787654876709,-0.7864969372749329,-0.3650963604450226,0.2534787654876709,1.2778600454330444,-1.5707963705062866,0.7966092824935913,0.20000000298023224,14.991690314209041,-14.999999999995719,-3.525041050764242,44230.0
1.1204,0.0159,1,1,-0.22182884812355042,0.6780028343200684,0.5518403649330139,-0.567083477973938,0.7876121401786804,0.7626533508300781,-1.2517884969711304,0.3278880715370178,1.2513904571533203,0.9797419309616089,0.1110362708568573,-0.10835934430360794,0.12662135064601898,0.6148182347830472,0.22039101120821383,-0.06428110622183847,11.296092380564788,-13.91295435694362,13.345392723732154,0.4191146492958069,-0.3452546298503876,0.10960930585861206,0.2108129858970642,-1.2517884969711304,0.3278880715370178,1.2513904571533203,0.1110362708568573,-0.10835934430360794,0.12662135064601898,0.9797419309616089,0.6148182153701782,0.22039100527763367,-0.06428110599517822,-0.3452546298503876,0.10960930585861206,0.2108129858970642,-0.42091605067253113,0.08884453773498535,0.2108129858970642,-0.49239763617515564,0.05649930238723755,0.2108129858970642,-0.5579392910003662,0.013370156288146973,0.2108129858970642,-0.6159271001815796,-0.03948098421096802,0.2108129858970642,-0.6649332046508789,-0.10075277090072632,0.2108129858970642,-0.7037510871887207,-0.1689363718032837,0.2108129858970642,-0.7314245700836182,-0.24235302209854126,0.2108129858970642,-0.7472726106643677,-0.31919488310813904,0.2108129858970642,-0.7509047985076904,-0.397569864988327,0.2108129858970642,1.5707963705062866,-1.5707963705062866,0.8255926370620728,0.20000000298023224,14.99584515710452,-14.99999999999786,-3.5777083098551605,44230.0
1.1398,0.0143,1,1,-0.2472207099199295,0.6840042471885681,0.5770155787467957,-0.5821723341941833,0.7844792604446411,0.7626533508300781,-1.2915116548538208,0.27314984798431396,1.2650351524353027,0.9790167808532715,0.11739172041416168,-0.1074916422367096,0.12723571062088013,0.686929246830368,-0.07073900138798242,0.02674257941387002,12.041406689701093,-13.906908212412368,13.335675734794933,0.3959156572818756,-0.33495163917541504,0.100475013256073,0.18563777208328247,-1.2915116548538208,0.27314984798431396,1.2650351524353027,0.11739172041416168,-0.1074916422367096,0.12723571062088013,0.9790167808532715,0.6869292259216309,-0.07073900103569031,0.02674257941544056,-0.33495163917541504,0.100475013256073,0.18563777208328247,-0.40993720293045044,0.07738840579986572,0.18563777208328247,-0.4803880453109741,0.042855679988861084,0.18563777208328247,-0.5445693731307983,-0.0022728443145751953,0.18563777208328247,-0.6009008884429932,-0.05688595771789551,0.18563777208328247,-0.6479955315589905,-0.11963886022567749,0.18563777208328247,-0.6846936345100403,-0.1889863908290863,0.18563777208328247,-0.7100915312767029,-0.26322096586227417,0.18563777208328247,-0.7235639691352844,-0.3405147194862366,0.18563777208328247,-0.7247790694236755,-0.4189644157886505,0.18563777208328247,1.5707963705062866,-1.5707963705062866,0.847725510597229,0.13928024470806122,14.99792257855226,-14.99999999999893,-3.5971422877295938,43446.0
1.1601,0.016,1,1,-0.28349339962005615,0.7176878452301025,0.5871307849884033,-0.5976216793060303,0.7807636260986328,0.7626533508300781,-1.3428966999053955,0.425630658864975,1.1657782793045044,0.9796943664550781,0.11007946729660034,-0.10869274288415909,0.12753570079803467,0.5759361494469176,0.022744565003442806,0.0010874220533346008,11.167331403565898,-13.948488595087554,13.463613282457837,0.36532631516456604,-0.3141282796859741,0.06307578086853027,0.1755225658416748,-1.3428966999053955,0.425630658864975,1.1657782793045044,0.11007946729660034,-0.10869274288415909,0.12753570079803467,0.9796943664550781,0.5759361386299133,0.022744564339518547,0.0010874220170080662,-0.3141282796859741,0.06307578086853027,0.1755225658416748,-0.38834238052368164,0.03761810064315796,0.1755225658416748,-0.4576603174209595,0.0008641481399536133,0.1755225658416748,-0.5203753113746643,-0.04628098011016846,0.1755225658416748,-0.5749430060386658,-0.10265648365020752,0.1755225658416748,-0.620019793510437,-0.16687417030334473,0.1755225658416748,-0.6544957756996155,-0.23735278844833374,0.1755225658416748,-0.6775220632553101,-0.3123569190502167,0.1755225658416748,-0.6885315775871277,-0.39003974199295044,0.1755225658416748,-0.6872532963752747,-0.4684884250164032,0.1755225658416748,1.5707963705062866,-1.5707963705062866,1.201698899269104,0.10784526914358139,14.99896128927613,-14.999999999999465,-3.3412671924038064,39446.0
1.1801,0.0161,1,1,-0.309804230928421,0.7259549498558044,0.6047676205635071,-0.6126932501792908,0.7766323089599609,0.7626533508300781,-1.3756979703903198,0.3789103925228119,1.1468136310577393,0.9789453148841858,0.11539968848228455,-0.10843954235315323,0.1287941187620163,0.5808287092645295,-0.0588197909027374,0.0005849438928800957,11.775359764628163,-14.006877672065299,13.538432007649572,0.3453083336353302,-0.30288901925086975,0.050677359104156494,0.15788573026657104,-1.3756979703903198,0.3789103925228119,1.1468136310577393,0.11539968848228455,-0.10843954235315323,0.1287941187620163,0.9789453148841858,0.5808287262916565,-0.058819789439439774,0.0005849439185112715,-0.30288901925086975,0.050677359104156494,0.15788573026657104,-0.3762712776660919,0.022912800312042236,0.15788573026657104,-0.44440677762031555,-0.01598942279815674,0.15788573026657104,-0.5056177377700806,-0.0650714635848999,0.15788573026657104,-0.5583970546722412,-0.12312471866607666,0.15788573026657104,-0.6014449596405029,-0.1887197494506836,0.15788573026657104,-0.6337015628814697,-0.2602413594722748,0.15788573026657104,-0.6543725728988647,-0.33592846989631653,0.15788573026657104,-0.6629489660263062,-0.4139173924922943,0.15788573026657104,-0.6592197418212891,-0.492287814617157,0.15788573026657104,1.5707963705062866,-1.5707963705062866,1.320334792137146,0.02312016859650612,14.999480644638066,-14.999999999999734,-3.1916297420203628,35446.0
1.2,0.016,1,1,-0.363640159368515,0.7597739100456238,0.6449774503707886,-0.627703070640564,0.7720077037811279,0.7626533508300781,-1.522862434387207,0.45718860626220703,1.207890510559082,0.978853702545166,0.11206532269716263,-0.11208156496286392,0.12931592762470245,0.6071564534849437,-0.029974435668195062,0.010891246949231239,11.336126629662246,-14.383241343201801,13.616436408255668,0.2893553376197815,-0.26406291127204895,0.01223379373550415,0.11767590045928955,-1.522862434387207,0.45718860626220703,1.207890510559082,0.11206532269716263,-0.11208156496286392,0.12931592762470245,0.978853702545166,0.6071564555168152,-0.0299744363874197,0.010891246609389782,-0.26406291127204895,0.01223379373550415,0.11767590045928955,-0.3365369737148285,-0.017821848392486572,0.11767590045928955,-0.40341702103614807,-0.058844923973083496,0.11767590045928955,-0.46305617690086365,-0.10982531309127808,0.11767590045928955,-0.5139859914779663,-0.16950762271881104,0.11767590045928955,-0.5549525022506714,-0.2364223599433899,0.11767590045928955,-0.5849467515945435,-0.30892181396484375,0.11767590045928955,-0.603230357170105,-0.38522082567214966,0.11767590045928955,-0.6093530654907227,-0.4634406566619873,0.11767590045928955,-0.6031641960144043,-0.5416553020477295,0.11767590045928955,1.5707963705062866,-1.5707963705062866,1.5707963705062866,0.021362630650401115,14.999740322319033,-14.999999999999867,-3.0356209408081747,31446.0
1.2199,0.0166,1,1,-0.3915967345237732,0.7691383361816406,0.6602795720100403,-0.6425401568412781,0.7669212222099304,0.7626533508300781,-1.5387178659439087,0.42528560757637024,1.1518183946609497,0.9782594442367554,0.11622815579175949,-0.1109548956155777,0.13109703361988068,0.544932260536974,-0.09505103226882941,0.022186166701880443,11.810890209979686,-14.333153590333936,13.775226123068814,0.2710312008857727,-0.2509434223175049,-0.002217113971710205,0.10237377882003784,-1.5387178659439087,0.42528560757637024,1.1518183946609497,0.11622815579175949,-0.1109548956155777,0.13109703361988068,0.9782594442367554,0.5449322462081909,-0.09505103528499603,0.022186167538166046,-0.2509434223175049,-0.002217113971710205,0.10237377882003784,-0.3224390745162964,-0.03453117609024048,0.10237377882003784,-0.3879994750022888,-0.07763183116912842,0.10237377882003784,-0.4460102915763855,-0.13045769929885864,0.10237377882003784,-0.4950430989265442,-0.19170808792114258,0.10237377882003784,-0.5338905453681946,-0.2598748207092285,0.10237377882003784,-0.561596155166626,-0.33327943086624146,0.10237377882003784,-0.5774775743484497,-0.4101143777370453,0.10237377882003784,-0.581143856048584,-0.48848775029182434,0.10237377882003784,-0.5725047588348389,-0.5664697885513306,0.10237377882003784,1.5707963705062866,-0.7875092029571533,1.5707963705062866,0.021362630650401115,14.999870161159517,-14.999999999999932,-2.7180415111818506,29452.0
1.2402,0.0164,1,1,-0.44813013076782227,0.8075031638145447,0.6973127126693726,-0.657288670539856,0.7613407969474792,0.7626533508300781,-1.667686939239502,0.5295071601867676,1.1926684379577637,0.9785464406013489,0.1107148826122284,-0.11386590451002121,0.13123127818107605,0.4478123682200733,-0.007750515536970843,-0.038277090037869284,11.128977504839014,-14.590248954216431,13.847391888556285,0.22393672168254852,-0.2091585397720337,-0.04616236686706543,0.06534063816070557,-1.667686939239502,0.5295071601867676,1.1926684379577637,0.1107148826122284,-0.11386590451002121,0.13123127818107605,0.9785464406013489,0.44781237840652466,-0.0077505153603851795,-0.03827708959579468,-0.2091585397720337,-0.04616236686706543,0.06534063816070557,-0.279599666595459,-0.0807148814201355,0.06534063816070557,-0.34376829862594604,-0.12586146593093872,0.06534063816070557,-0.4000844359397888,-0.1804904341697693,0.06534063816070557,-0.4471614360809326,-0.2432565689086914,0.06534063816070557,-0.4838399887084961,-0.31261441111564636,0.06534063816070557,-0.5092170238494873,-0.3868561387062073,0.06534063816070557,-0.5226677060127258,-0.4641536772251129,0.06534063816070557,-0.52386075258255,-0.5426037311553955,0.06534063816070557,-0.5127668380737305,-0.620274543762207,0.06534063816070557,1.5707963705062866,1.5707963705062866,1.5707963705062866,0.021362630650401115,14.999935080579759,3.375077994860476e-14,-2.5737099802069308,29452.0
1.2602,0.0158,1,1,-0.4764678478240967,0.816401481628418,0.7115543484687805,-0.6716532707214355,0.7553849816322327,0.7626533508300781,-1.6649187803268433,0.49835219979286194,1.1046944856643677,0.9781108498573303,0.11449030786752701,-0.11255922168493271,0.13236112892627716,0.483638476205337,-0.05979729585847258,-0.006352334118435925,11.57007035056842,-14.507037937928082,13.935671611790804,0.21078774333000183,-0.19518542289733887,-0.0610164999961853,0.05109900236129761,-1.6649187803268433,0.49835219979286194,1.1046944856643677,0.11449030786752701,-0.11255922168493271,0.13236112892627716,0.9781108498573303,0.4836384654045105,-0.059797294437885284,-0.0063523342832922935,-0.19518542289733887,-0.0610164999961853,0.05109900236129761,-0.26451796293258667,-0.09774279594421387,0.05109900236129761,-0.327251672744751,-0.14486300945281982,0.05109900236129761,-0.381841778755188,-0.20121675729751587,0.05109900236129761,-0.42694413661956787,-0.2654165029525757,0.05109900236129761,-0.46144819259643555,-0.33588141202926636,0.05109900236129761,-0.4845042824745178,-0.41087639331817627,0.05109900236129761,-0.4955446720123291,-0.48855483531951904,0.05109900236129761,-0.4942976236343384,-0.5670040249824524,0.05109900236129761,-0.48079371452331543,-0.6442922353744507,0.05109900236129761,1.5707963705062866,1.5707963705062866,1.5707963705062866,0.021362630650401115,14.99996754028988,7.500000000000017,-2.3971505337378693,29452.0
1.2803,0.016,1,1,-0.5096873044967651,0.825524091720581,0.733167290687561,-0.6862281560897827,0.7487958669662476,0.7626533508300781,-1.694123387336731,0.4542500674724579,1.064226746559143,0.9774921536445618,0.11939879506826401,-0.11244425922632217,0.13269229233264923,0.5352068289996817,0.1732573875505827,-0.026634095130746722,12.142486636330343,-14.567083226193727,13.903313440095133,0.19473910331726074,-0.17654085159301758,-0.0767282247543335,0.02948606014251709,-1.694123387336731,0.4542500674724579,1.064226746559143,0.11939879506826401,-0.11244425922632217,0.13269229233264923,0.9774921536445618,0.5352068543434143,0.17325738072395325,-0.02663409523665905,-0.17654085159301758,-0.0767282247543335,0.02948606014251709,-0.24466317892074585,-0.11565345525741577,0.02948606014251709,-0.3058575987815857,-0.164756178855896,0.02948606014251709,-0.35861724615097046,-0.22282719612121582,0.02948606014251709,-0.4016430377960205,-0.28843677043914795,0.02948606014251709,-0.43387550115585327,-0.35996925830841064,0.02948606014251709,-0.4545210003852844,-0.4356633424758911,0.02948606014251709,-0.4630711078643799,-0.5136551856994629,0.02948606014251709,-0.4593154191970825,-0.5920243263244629,0.02948606014251709,-0.4433462619781494,-0.6688411235809326,0.02948606014251709,1.5707963705062866,1.5707963705062866,1.5707963705062866,0.021362630650401115,14.99998377014494,11.250000000000009,-2.461866877129247,29452.0
1.3001,0.0157,1,1,-0.5776377320289612,0.8712587356567383,0.779315710067749,-0.7002009153366089,0.741939902305603,0.7626533508300781,-1.8430604934692383,0.557898998260498,1.1463013887405396,0.9783669114112854,0.11462316662073135,-0.11102237552404404,0.13164986670017242,0.4776413703256148,1.006371824317901,0.012187103684960968,11.613817912995367,-14.324981338283958,13.863052678617201,0.17894895374774933,-0.1225631833076477,-0.12931883335113525,-0.0166623592376709,-1.8430604934692383,0.557898998260498,1.1463013887405396,0.11462316662073135,-0.11102237552404404,0.13164986670017242,0.9783669114112854,0.47764137387275696,1.0063718557357788,0.012187103740870953,-0.1225631833076477,-0.12931883335113525,-0.0166623592376709,-0.1894410252571106,-0.1703454852104187,-0.0166623592376709,-0.24907749891281128,-0.22132903337478638,-0.0166623592376709,-0.30000412464141846,-0.281014084815979,-0.0166623592376709,-0.34096699953079224,-0.3479309678077698,-0.0166623592376709,-0.3709574341773987,-0.42043206095695496,-0.0166623592376709,-0.3892369866371155,-0.49673202633857727,-0.0166623592376709,-0.3953555226325989,-0.5749521851539612,-0.0166623592376709,-0.38916242122650146,-0.6531664729118347,-0.0166623592376709,-0.3708101511001587,-0.7294490337371826,-0.0166623592376709,1.5707963705062866,1.5707963705062866,1.5707963705062866,0.021362630650401115,14.99999188507247,13.125000000000004,-2.5423884000851,29452.0
1.3202,0.0161,1,1,-0.6141098141670227,0.8812998533248901,0.8016762733459473,-0.7141854166984558,0.7345247864723206,0.7626533508300781,-1.8686696290969849,0.5151232481002808,1.0975360870361328,0.9792373180389404,0.11727900803089142,-0.097396619617939,0.13361060619354248,0.3736760887427745,2.1037871394515233,-0.026646216674895785,12.056604693292439,-12.831715508817794,14.178581617810647,0.181881383061409,-0.1000756025314331,-0.14677506685256958,-0.03902292251586914,-1.8686696290969849,0.5151232481002808,1.0975360870361328,0.11727900803089142,-0.097396619617939,0.13361060619354248,0.9792373180389404,0.3736760914325714,2.1037871837615967,-0.026646217331290245,-0.1000756025314331,-0.14677506685256958,-0.03902292251586914,-0.16562128067016602,-0.18989813327789307,-0.03902292251586914,-0.22361403703689575,-0.24274379014968872,-0.03902292251586914,-0.27262598276138306,-0.3040109872817993,-0.03902292251586914,-0.31145012378692627,-0.3721909523010254,-0.03902292251586914,-0.3391306400299072,-0.44560500979423523,-0.03902292251586914,-0.3549858331680298,-0.5224453806877136,-0.03902292251586914,-0.3586253523826599,-0.600820004940033,-0.03902292251586914,-0.3499595522880554,-0.6787990927696228,-0.03902292251586914,-0.329201877117157,-0.754462480545044,-0.03902292251586914,1.5707963705062866,1.5707963705062866,1.5707963705062866,0.021362630650401115,14.999995942536234,14.062500000000002,-1.9113305216981915,29452.0
1.3398,0.0157,1,1,-0.6770005226135254,0.9184028506278992,0.8522852063179016,-0.7276296019554138,0.7268475294113159,0.7626533508300781,-1.9749853610992432,0.5691894292831421,1.232822299003601,0.9817096590995789,0.11207723617553711,-0.0742298886179924,0.13480618596076965,0.4584001646078469,2.978379228287633,-0.03973988952324415,11.724854045449726,-10.13463416940067,14.594335181319876,0.21746405959129333,-0.05062907934188843,-0.19155532121658325,-0.08963185548782349,-1.9749853610992432,0.5691894292831421,1.232822299003601,0.11207723617553711,-0.0742298886179924,0.13480618596076965,0.9817096590995789,0.458400160074234,2.978379249572754,-0.03973988816142082,-0.05062907934188843,-0.19155532121658325,-0.08963185548782349,-0.11480826139450073,-0.23668694496154785,-0.08963185548782349,-0.17113715410232544,-0.29130274057388306,-0.08963185548782349,-0.21822869777679443,-0.3540579676628113,-0.08963185548782349,-0.25492340326309204,-0.42340725660324097,-0.08963185548782349,-0.2803177237510681,-0.4976430833339691,-0.08963185548782349,-0.2937864065170288,-0.5749374628067017,-0.08963185548782349,-0.2949976921081543,-0.6533872485160828,-0.08963185548782349,-0.28392183780670166,-0.7310606241226196,-0.08963185548782349,-0.2608315944671631,-0.8060450553894043,-0.08963185548782349,1.5707963705062866,1.5707963705062866,1.4743741750717163,0.021362630650401115,14.999997971268117,14.53125,-1.079823394679734,29452.0
1.3597,0.0164,1,1,-0.7160577178001404,0.9287347197532654,0.87641841173172,-0.7409491539001465,0.7186819314956665,0.7626533508300781,-1.990613341331482,0.5293121337890625,1.1847418546676636,0.983107328414917,0.11252802610397339,-0.042392797768116,0.13797932863235474,0.45767198978679197,3.389856791464724,-0.09089124954753129,12.17748165709101,-6.569389648402565,15.27702715510043,0.24017545580863953,-0.024891436100006104,-0.21005278825759888,-0.11376506090164185,-1.990613341331482,0.5293121337890625,1.1847418546676636,0.11252802610397339,-0.042392797768116,0.13797932863235474,0.983107328414917,0.45767199993133545,3.3898568153381348,-0.09089124947786331,-0.024891436100006104,-0.21005278825759888,-0.11376506090164185,-0.08762919902801514,-0.2571675181388855,-0.11376506090164185,-0.1422242522239685,-0.3135165572166443,-0.11376506090164185,-0.18733221292495728,-0.3777123689651489,-0.11376506090164185,-0.22184234857559204,-0.44817426800727844,-0.11376506090164185,-0.24490493535995483,-0.5231672525405884,-0.11376506090164185,-0.2559521198272705,-0.6008447408676147,-0.11376506090164185,-0.2547118663787842,-0.6792939901351929,-0.11376506090164185,-0.24121469259262085,-0.7565834522247314,-0.11376506090164185,-0.2157929539680481,-0.8308098912239075,-0.11376506090164185,1.5707963705062866,1.5707963705062866,1.4300633668899536,0.021362630650401115,14.999998985634058,14.765625,0.28556055288135,29452.0
1.3801,0.016,1,1,-0.7651988863945007,0.9479392766952515,0.9233937859535217,-0.7541013360023499,0.7100400924682617,0.7626533508300781,-2.0241446495056152,0.5154786109924316,1.2975784540176392,0.9838053584098816,0.11144819855690002,-0.006828577723354101,0.14020581543445587,0.41996462480749625,3.236130344913753,-0.18185109213788894,12.567476525004478,-2.561249706560041,15.939534615702929,0.28732675313949585,0.011097550392150879,-0.23789918422698975,-0.1607404351234436,-2.0241446495056152,0.5154786109924316,1.2975784540176392,0.11144819855690002,-0.006828577723354101,0.14020581543445587,0.9838053584098816,0.41996461153030396,3.2361302375793457,-0.1818510890007019,0.011097550392150879,-0.23789918422698975,-0.1607404351234436,-0.05012643337249756,-0.28696495294570923,-0.1607404351234436,-0.10292106866836548,-0.34500420093536377,-0.1607404351234436,-0.1459863781929016,-0.41058778762817383,-0.1607404351234436,-0.17826199531555176,-0.48210084438323975,-0.1607404351234436,-0.19895309209823608,-0.5577824711799622,-0.1607404351234436,-0.20755022764205933,-0.6357691287994385,-0.1607404351234436,-0.20384174585342407,-0.7141405344009399,-0.1607404351234436,-0.18791890144348145,-0.7909669280052185,-0.1607404351234436,-0.16017377376556396,-0.8643565773963928,-0.1607404351234436,1.5707963705062866,1.5707963705062866,1.2845333814620972,0.021362630650401115,14.999999492817029,14.8828125,1.610575474086367,29452.0
1.4001,0.0155,1,1,-0.8048124313354492,0.9569862484931946,0.9488924145698547,-0.7670562267303467,0.7009296417236328,0.7626533508300781,-2.018507957458496,0.4776754379272461,1.2522562742233276,0.9833021759986877,0.111305832862854,0.02452186308801174,0.14186109602451324,0.36759086552048437,2.7460850022054717,-0.2221192030185935,13.054821061674666,0.9537247163173624,16.527943646102194,0.31886595487594604,0.03775620460510254,-0.25605660676956177,-0.1862390637397766,-2.018507957458496,0.4776754379272461,1.2522562742233276,0.111305832862854,0.02452186308801174,0.14186109602451324,0.9833021759986877,0.36759087443351746,2.7460849285125732,-0.22211919724941254,0.03775620460510254,-0.25605660676956177,-0.1862390637397766,-0.021883070468902588,-0.307036817073822,-0.1862390637397766,-0.07281303405761719,-0.36671900749206543,-0.1862390637397766,-0.11377966403961182,-0.43363362550735474,-0.1862390637397766,-0.143774151802063,-0.5061330795288086,-0.1862390637397766,-0.16205793619155884,-0.5824320316314697,-0.1862390637397766,-0.16818082332611084,-0.6606518030166626,-0.1862390637397766,-0.16199207305908203,-0.7388664484024048,-0.1862390637397766,-0.1436440348625183,-0.8151500225067139,-0.1862390637397766,-0.11358857154846191,-0.8876241445541382,-0.1862390637397766,1.5707963705062866,1.5707963705062866,1.2818068265914917,0.021362630650401115,14.999999746408514,14.94140625,2.7873935348848997,29452.0
1.4198,0.0159,1,1,-0.8466957807540894,0.9670318961143494,0.9860041737556458,-0.7795683145523071,0.6915281414985657,0.7626533508300781,-2.008474588394165,0.4432552754878998,1.282626748085022,0.9821907877922058,0.11144484579563141,0.051413584500551224,0.14225304126739502,0.3654475867647022,1.987333629727029,-0.20587062470726117,13.539186774825978,3.9731600450039233,16.953749850956715,0.3609626293182373,0.06712746620178223,-0.2755037546157837,-0.22335082292556763,-2.008474588394165,0.4432552754878998,1.282626748085022,0.11144484579563141,0.051413584500551224,0.14225304126739502,0.9821907877922058,0.3654475808143616,1.9873336553573608,-0.2058706283569336,0.06712746620178223,-0.2755037546157837,-0.22335082292556763,0.009112894535064697,-0.3283255696296692,-0.22335082292556763,-0.0399242639541626,-0.38957250118255615,-0.22335082292556763,-0.0787765383720398,-0.4577364921569824,-0.22335082292556763,-0.10648727416992188,-0.5311391353607178,-0.22335082292556763,-0.12237411737442017,-0.6079729795455933,-0.22335082292556763,-0.12604594230651855,-0.6863460540771484,-0.22335082292556763,-0.11741232872009277,-0.7643287181854248,-0.22335082292556763,-0.09668582677841187,-0.8400006294250488,-0.22335082292556763,-0.06437677145004272,-0.9114985466003418,-0.22335082292556763,1.5707963705062866,1.5707963705062866,1.196778416633606,0.021362630650401115,14.999999873204256,14.970703125,3.6390059445939396,29452.0
1.4404,0.016,1,1,-0.88719242811203,0.9745486974716187,1.0124647617340088,-0.7919830679893494,0.6815716028213501,0.7626533508300781,-1.981400489807129,0.40541431307792664,1.232661485671997,0.9808181524276733,0.11215156316757202,0.07263325154781342,0.14191612601280212,0.3683787950184979,1.491811629395054,-0.2106313913404277,14.010685179639795,6.352659300296111,17.247525391009926,0.3966183662414551,0.09520936012268066,-0.29297709465026855,-0.24981141090393066,-1.981400489807129,0.40541431307792664,1.232661485671997,0.11215156316757202,0.07263325154781342,0.14191612601280212,0.9808181524276733,0.36837878823280334,1.4918116331100464,-0.2106313854455948,0.09520936012268066,-0.29297709465026855,-0.24981141090393066,0.038905203342437744,-0.3476184010505676,-0.24981141090393066,-0.008157968521118164,-0.41039490699768066,-0.24981141090393066,-0.04482126235961914,-0.4797608256340027,-0.24981141090393066,-0.07018202543258667,-0.5540081262588501,-0.24981141090393066,-0.08361566066741943,-0.6313086152076721,-0.24981141090393066,-0.08479148149490356,-0.7097588777542114,-0.24981141090393066,-0.07368046045303345,-0.7874273061752319,-0.24981141090393066,-0.0505562424659729,-0.8624012470245361,-0.24981141090393066,-0.01598823070526123,-0.932834804058075,-0.24981141090393066,1.5707963705062866,1.5707963705062866,1.1815437078475952,0.021362630650401115,14.999999936602128,14.9853515625,4.226557024700382,29452.0
1.4602,0.0166,1,1,-0.9252526760101318,0.9810882210731506,1.0368459224700928,-0.8038632869720459,0.6714116334915161,0.7626533508300781,-1.9494590759277344,0.37051600217819214,1.1857044696807861,0.9795630574226379,0.11317338794469833,0.08832120895385742,0.14087381958961487,0.24136997947152897,1.0636128101026554,-0.1964155206653688,14.424204210013455,8.114168760573666,17.395985087090075,0.4310644268989563,0.12138938903808594,-0.3096765875816345,-0.27419257164001465,-1.9494590759277344,0.37051600217819214,1.1857044696807861,0.11317338794469833,0.08832120895385742,0.14087381958961487,0.9795630574226379,0.24136997759342194,1.0636128187179565,-0.196415513753891,0.12138938903808594,-0.3096765875816345,-0.27419257164001465,0.06682085990905762,-0.36605125665664673,-0.27419257164001465,0.02174311876296997,-0.4302682876586914,-0.27419257164001465,-0.012733876705169678,-0.5007464289665222,-0.27419257164001465,-0.03576117753982544,-0.5757502317428589,-0.27419257164001465,-0.0467718243598938,-0.6534329056739807,-0.27419257164001465,-0.045494675636291504,-0.7318816184997559,-0.27419257164001465,-0.031961143016815186,-0.8091647028923035,-0.27419257164001465,-0.006504535675048828,-0.8833791613578796,-0.27419257164001465,0.030248403549194336,-0.9526976346969604,-0.27419257164001465,1.5707963705062866,1.5707963705062866,1.1480828523635864,0.021362630650401115,14.999999968301065,14.99267578125,4.5234764168606745,29452.0
1.4801,0.0159,1,1,-0.9630923867225647,0.9872040748596191,1.060089349746704,-0.815455973148346,0.6608515381813049,0.7626533508300781,-1.9151532649993896,0.33698511123657227,1.1360899209976196,0.9786285758018494,0.11379591375589371,0.0990268811583519,0.13974376022815704,0.10359910525533284,1.111560628684551,-0.29971105052356783,14.699961627592685,9.323962462612508,17.458565110834087,0.4655863642692566,0.14763641357421875,-0.3263525366783142,-0.297435998916626,-1.9151532649993896,0.33698511123657227,1.1360899209976196,0.11379591375589371,0.0990268811583519,0.13974376022815704,0.9786285758018494,0.10359910875558853,1.111560583114624,-0.29971104860305786,0.14763641357421875,-0.3263525366783142,-0.297435998916626,0.09486258029937744,-0.3844107389450073,-0.297435998916626,0.05182075500488281,-0.4500097632408142,-0.297435998916626,0.01957082748413086,-0.5215343832969666,-0.297435998916626,-0.0010930895805358887,-0.5972234010696411,-0.297435998916626,-0.009662270545959473,-0.6752131581306458,-0.297435998916626,-0.005925655364990234,-0.7535831928253174,-0.297435998916626,0.010024666786193848,-0.8304039239883423,-0.297435998916626,0.037796080112457275,-0.9037835597991943,-0.297435998916626,0.07670468091964722,-0.9719154238700867,-0.297435998916626,1.5707963705062866,1.5707963705062866,1.1233335733413696,0.021362630650401115,14.999999984150532,14.996337890625,4.6486364643486855,29452.0
1.5003,0.016,1,1,-1.0002779960632324,0.9926649928092957,1.0823266506195068,-0.8267590403556824,0.6498858332633972,0.7626533508300781,-1.878229022026062,0.3038654625415802,1.085493803024292,0.9778133630752563,0.1126805990934372,0.11026256531476974,0.1379285454750061,0.05204810045877647,0.9190947756528515,-0.2725932129867542,14.783109219344333,10.634820448338955,17.441633986712638,0.49979737401008606,0.17351895570755005,-0.34277915954589844,-0.3196732997894287,-1.878229022026062,0.3038654625415802,1.085493803024292,0.1126805990934372,0.11026256531476974,0.1379285454750061,0.9778133630752563,0.052048102021217346,0.9190948009490967,-0.2725932002067566,0.17351895570755005,-0.34277915954589844,-0.3196732997894287,0.12259966135025024,-0.40247052907943726,-0.3196732997894287,0.08164513111114502,-0.4693925380706787,-0.3196732997894287,0.05166369676589966,-0.5418972969055176,-0.3196732997894287,0.03339362144470215,-0.6181995868682861,-0.3196732997894287,0.02728480100631714,-0.6964204907417297,-0.3196732997894287,0.03348761796951294,-0.7746340036392212,-0.3196732997894287,0.051849365234375,-0.8509142398834229,-0.3196732997894287,0.08191788196563721,-0.9233829379081726,-0.3196732997894287,0.12295281887054443,-0.9902557134628296,-0.3196732997894287,1.5707963705062866,1.5707963705062866,1.0798760652542114,0.021362630650401115,14.999999992075267,14.9981689453125,4.61477421610578,29452.0
1.5201,0.0158,1,1,-1.0363982915878296,0.9976158142089844,1.100852131843567,-0.8376418352127075,0.6386435031890869,0.7626533508300781,-1.8362361192703247,0.27177634835243225,1.0248923301696777,0.9770318865776062,0.11133210361003876,0.12028086185455322,0.13617761433124542,0.014511318229381476,0.8077557336437997,-0.23744859127968498,14.816549007827122,11.81279218008182,17.410698910942887,0.531736433506012,0.19875645637512207,-0.35897231101989746,-0.33819878101348877,-1.8362361192703247,0.27177634835243225,1.0248923301696777,0.11133210361003876,0.12028086185455322,0.13617761433124542,0.9770318865776062,0.014511317946016788,0.807755708694458,-0.237448588013649,0.19875645637512207,-0.35897231101989746,-0.33819878101348877,0.14972984790802002,-0.42022770643234253,-0.33819878101348877,0.11088937520980835,-0.48839837312698364,-0.33819878101348877,0.08319127559661865,-0.561805784702301,-0.33819878101348877,0.06731760501861572,-0.6386423110961914,-0.33819878101348877,0.06365931034088135,-0.7170161008834839,-0.33819878101348877,0.07230639457702637,-0.7949972152709961,-0.33819878101348877,0.09304594993591309,-0.8706656098365784,-0.33819878101348877,0.12536728382110596,-0.9421579837799072,-0.33819878101348877,0.16847455501556396,-1.007714033126831,-0.33819878101348877,1.5707963705062866,1.5707963705062866,1.0445042848587036,0.021362630650401115,14.999999996037634,14.99908447265625,4.552904064566282,29452.0
1.5398,0.0156,1,1,-1.0719667673110962,1.0020816326141357,1.120905876159668,-0.8481021523475647,0.6271404027938843,0.7626533508300781,-1.7917706966400146,0.2407056987285614,0.9776883721351624,0.9763213992118835,0.10997956246137619,0.12876391410827637,0.13460618257522583,-0.017974279649973852,0.59331653793202,-0.22972663918570252,14.82028741759844,12.81607458969448,17.373511179868903,0.5648372769355774,0.2238646149635315,-0.37494122982025146,-0.35825252532958984,-1.7917706966400146,0.2407056987285614,0.9776883721351624,0.10997956246137619,0.12876391410827637,0.13460618257522583,0.9763213992118835,-0.017974279820919037,0.5933165550231934,-0.229726642370224,0.2238646149635315,-0.37494122982025146,-0.35825252532958984,0.17676633596420288,-0.4376913905143738,-0.35825252532958984,0.14006412029266357,-0.5070367455482483,-0.35825252532958984,0.11466187238693237,-0.5812698602676392,-0.35825252532958984,0.1011849045753479,-0.6585627794265747,-0.35825252532958984,0.0999651551246643,-0.7370123863220215,-0.35825252532958984,0.11103266477584839,-0.8146870136260986,-0.35825252532958984,0.13411486148834229,-0.8896739482879639,-0.35825252532958984,0.16864347457885742,-0.9601267576217651,-0.35825252532958984,0.21376818418502808,-1.024310827255249,-0.35825252532958984,1.5707963705062866,1.5707963705062866,1.0114761590957642,0.021362630650401115,14.999999998018817,14.999542236328125,4.4785286024183355,29452.0
1.5599,0.0165,1,1,-1.108379602432251,1.0084202289581299,1.1311670541763306,-0.8583504557609558,0.6151353716850281,0.7626533508300781,-1.752314567565918,0.21857033669948578,0.885888397693634,0.9759887456893921,0.10851842164993286,0.13413546979427338,0.13294890522956848,0.0022787025778072756,0.5735718616101725,-0.24548820855744344,14.743655080779975,13.472262811553506,17.26505751368085,0.5941295623779297,0.25002914667129517,-0.3932848572731018,-0.36851370334625244,-1.752314567565918,0.21857033669948578,0.885888397693634,0.10851842164993286,0.13413546979427338,0.13294890522956848,0.9759887456893921,0.0022787025664001703,0.5735718607902527,-0.2454882115125656,0.25002914667129517,-0.3932848572731018,-0.36851370334625244,0.2049350142478943,-0.45749038457870483,-0.36851370334625244,0.17044001817703247,-0.5279597043991089,-0.36851370334625244,0.14739352464675903,-0.6029576063156128,-0.36851370334625244,0.13636302947998047,-0.6806374788284302,-0.36851370334625244,0.13762015104293823,-0.7590864896774292,-0.36851370334625244,0.1511339545249939,-0.8363730311393738,-0.36851370334625244,0.17657160758972168,-0.9105939865112305,-0.36851370334625244,0.21330684423446655,-0.9799218773841858,-0.36851370334625244,0.2604350447654724,-1.042649507522583,-0.36851370334625244,1.5707963705062866,1.5707963705062866,1.0327469110488892,0.021362630650401115,14.999999999009408,14.999771118164062,4.261621270042234,29452.0
1.5799,0.0163,1,1,-1.142184853553772,1.0112590789794922,1.1484206914901733,-0.8681840300559998,0.602852463722229,0.7626533508300781,-1.7046605348587036,0.1870226114988327,0.837236225605011,0.9755222201347351,0.10757799446582794,0.13993152976036072,0.13115055859088898,0.02701133606034565,0.43658188448223645,-0.20467736209133755,14.733991522414154,14.169707671922573,17.155256698986758,0.6250510811805725,0.2740008234977722,-0.4084066152572632,-0.3857673406600952,-1.7046605348587036,0.1870226114988327,0.837236225605011,0.10757799446582794,0.13993152976036072,0.13115055859088898,0.9755222201347351,0.027011336758732796,0.43658187985420227,-0.20467735826969147,0.2740008234977722,-0.4084066152572632,-0.3857673406600952,0.23094922304153442,-0.4739992022514343,-0.3857673406600952,0.19868862628936768,-0.5455189943313599,-0.3857673406600952,0.17801332473754883,-0.6212049722671509,-0.3857673406600952,0.16943252086639404,-0.6991934180259705,-0.3857673406600952,0.17315739393234253,-0.7775640487670898,-0.3857673406600952,0.18909627199172974,-0.854387104511261,-0.3857673406600952,0.2168567180633545,-0.9277709722518921,-0.3857673406600952,0.25575512647628784,-0.9959086179733276,-0.3857673406600952,0.30483371019363403,-1.0571223497390747,-0.3857673406600952,1.5707963705062866,1.5707963705062866,0.9918709993362427,0.021362630650401115,14.999999999504704,14.999885559082031,4.042019640654012,29452.0
1.6005,0.0166,1,1,-1.177651047706604,1.0182255506515503,1.1513410806655884,-0.8776962757110596,0.5901697278022766,0.7626533508300781,-1.6650900840759277,0.17111451923847198,0.7210949063301086,0.9753602147102356,0.106691375374794,0.14333172142505646,0.1293962299823761,0.004239926965278359,0.40757666468088366,-0.23729061589277284,14.67852007908988,14.595253696190909,17.003934415988237,0.6513699293136597,0.29995477199554443,-0.4280558228492737,-0.38868772983551025,-1.6650900840759277,0.17111451923847198,0.7210949063301086,0.106691375374794,0.14333172142505646,0.1293962299823761,0.9753602147102356,0.0042399270460009575,0.40757665038108826,-0.237290620803833,0.29995477199554443,-0.4280558228492737,-0.38868772983551025,0.25900429487228394,-0.4949803352355957,-0.38868772983551025,0.22902733087539673,-0.5674869418144226,-0.38868772983551025,0.2107619047164917,-0.6437903046607971,-0.38868772983551025,0.20465785264968872,-0.7220115661621094,-0.38868772983551025,0.21086543798446655,-0.800224781036377,-0.38868772983551025,0.2292318344116211,-0.8765038847923279,-0.38868772983551025,0.25930482149124146,-0.9489707350730896,-0.38868772983551025,0.3003438711166382,-1.015841007232666,-0.38868772983551025,0.3513384461402893,-1.0754679441452026,-0.38868772983551025,1.5707963705062866,1.5707963705062866,1.0531238317489624,0.021362630650401115,14.999999999752351,14.999942779541016,3.7393750746570005,29452.0
1.6203,0.0174,1,1,-1.209373116493225,1.0200560092926025,1.1652737855911255,-0.8866634368896484,0.5773954391479492,0.7626533508300781,-1.6144033670425415,0.14090871810913086,0.6700552701950073,0.975031316280365,0.10643719136714935,0.14737167954444885,0.1275332272052765,0.014641517678361929,0.3025110648041635,-0.2189967964432869,14.708222821863236,15.084033271475636,16.861761624230308,0.6798478960990906,0.32270967960357666,-0.4426605701446533,-0.40262043476104736,-1.6144033670425415,0.14090871810913086,0.6700552701950073,0.10643719136714935,0.14737167954444885,0.1275332272052765,0.975031316280365,0.014641517773270607,0.302511066198349,-0.2189967930316925,0.32270967960357666,-0.4426605701446533,-0.40262043476104736,0.2838679552078247,-0.5108305215835571,-0.40262043476104736,0.25616854429244995,-0.5842374563217163,-0.40262043476104736,0.24029356241226196,-0.6610737442970276,-0.40262043476104736,0.23663383722305298,-0.7394474148750305,-0.40262043476104736,0.24527955055236816,-0.817428708076477,-0.40262043476104736,0.26601773500442505,-0.893097460269928,-0.40262043476104736,0.29833781719207764,-0.9645903706550598,-0.40262043476104736,0.3414439558982849,-1.0301471948623657,-0.40262043476104736,0.3942747116088867,-1.088153600692749,-0.40262043476104736,1.5707963705062866,1.5707963705062866,1.0263384580612183,0.021362630650401115,14.999999999876175,14.999971389770508,3.4550294911411026,29452.0
1.6402,0.0161,1,1,-1.2422665357589722,1.0252909660339355,1.1649166345596313,-0.8953444957733154,0.564163088798523,0.7626533508300781,-1.5719999074935913,0.12355451285839081,0.5517306923866272,0.9749201536178589,0.10560236871242523,0.15037377178668976,0.1255570650100708,-0.0432198587644075,0.20441802013543425,-0.2210169039986529,14.644759982525182,15.46719463223766,16.676580766721727,0.7034270167350769,0.34692203998565674,-0.4611278772354126,-0.4022632837295532,-1.5719999074935913,0.12355451285839081,0.5517306923866272,0.10560236871242523,0.15037377178668976,0.1255570650100708,0.9749201536178589,-0.043219856917858124,0.20441801846027374,-0.22101689875125885,0.34692203998565674,-0.4611278772354126,-0.4022632837295532,0.3102571964263916,-0.5304930210113525,-0.4022632837295532,0.28489482402801514,-0.604739785194397,-0.4022632837295532,0.2714594602584839,-0.6820399761199951,-0.4022632837295532,0.27028191089630127,-0.7604901790618896,-0.4022632837295532,0.2813912034034729,-0.8381588459014893,-0.4022632837295532,0.3045138120651245,-0.9131333231925964,-0.4022632837295532,0.339080274105072,-0.9835675954818726,-0.4022632837295532,0.3842395544052124,-1.047727346420288,-0.4022632837295532,0.4388796091079712,-1.1040326356887817,-0.4022632837295532,1.5707963705062866,1.5707963705062866,1.089931607246399,0.021362630650401115,14.999999999938087,14.999985694885254,3.0846677761239585,29452.0
1.6605,0.0171,1,1,-1.272685170173645,1.0265212059020996,1.1754250526428223,-0.9035173058509827,0.5508067607879639,0.7626533508300781,-1.5218019485473633,0.09498441219329834,0.49859747290611267,0.9748691320419312,0.10489919036626816,0.15271273255348206,0.12370635569095612,-0.06724078533216282,0.1376907879687904,-0.2003127240255635,14.583323037030702,15.771194987887425,16.494437927879325,0.7300476431846619,0.36916786432266235,-0.47571444511413574,-0.41277170181274414,-1.5218019485473633,0.09498441219329834,0.49859747290611267,0.10489919036626816,0.15271273255348206,0.12370635569095612,0.9748691320419312,-0.06724078208208084,0.13769078254699707,-0.20031271874904633,0.36916786432266235,-0.47571444511413574,-0.41277170181274414,0.3346930146217346,-0.5461935997009277,-0.41277170181274414,0.3116679787635803,-0.6211981177330017,-0.41277170181274414,0.300659716129303,-0.6988810896873474,-0.41277170181274414,0.3019392490386963,-0.7773297429084778,-0.41277170181274414,0.31547510623931885,-0.854612410068512,-0.41277170181274414,0.34093403816223145,-0.9288261532783508,-0.41277170181274414,0.37768906354904175,-0.9981434941291809,-0.41277170181274414,0.424835205078125,-1.0608576536178589,-0.41277170181274414,0.4812116026878357,-1.1154245138168335,-0.41277170181274414,1.5707963705062866,1.5707963705062866,1.0713154077529907,0.021362630650401115,14.999999999969043,14.999992847442627,2.7203820984391522,29452.0
