t_s,telemetry_age_s,airborne,phase,pos_x,pos_y,pos_z,ref_x,ref_y,ref_z,vel_x,vel_y,vel_z,qw,qx,qy,qz,gyro_x,gyro_y,gyro_z,roll_meas_deg,pitch_meas_deg,yaw_meas_deg,pos_err,obs_0,obs_1,obs_2,obs_3,obs_4,obs_5,obs_6,obs_7,obs_8,obs_9,obs_10,obs_11,obs_12,obs_13,obs_14,obs_15,obs_16,obs_17,obs_18,obs_19,obs_20,obs_21,obs_22,obs_23,obs_24,obs_25,obs_26,obs_27,obs_28,obs_29,obs_30,obs_31,obs_32,obs_33,obs_34,obs_35,obs_36,obs_37,obs_38,obs_39,obs_40,obs_41,obs_42,act_roll_rad,act_pitch_rad,act_yaw_rad,act_thrust_N,cmd_roll_deg,cmd_pitch_deg,cmd_yaw,cmd_pwm
0.0,0.0093,0,1,-0.26894456148147583,0.15682607889175415,-0.0007746382616460323,-0.26968368887901306,0.15767307579517365,-0.0004903754452243447,0.05363075062632561,-0.00034058818710036576,0.000945066858548671,0.995456874370575,-0.0074350484646856785,-0.006307854317128658,0.09470241516828537,0.00018566470383888568,0.009626330735822268,-0.0030353360318975354,-0.9166726181715156,-0.6388703354850893,10.874002811512852,0.0011595337418839335,-0.0007391273975372314,0.0008469969034194946,0.0002842628164216876,0.05363075062632561,-0.00034058818710036576,0.000945066858548671,-0.0074350484646856785,-0.006307854317128658,0.09470241516828537,0.995456874370575,0.00018566469952929765,0.009626330807805061,-0.003035336034372449,-0.0007391273975372314,0.0008469969034194946,0.0002842628164216876,-0.0019710958003997803,0.016490384936332703,0.025284262374043465,-0.005635082721710205,0.031748443841934204,0.050284262746572495,-0.011640846729278564,0.04624547064304352,0.07528426498174667,-0.019840478897094727,0.05962452292442322,0.10028426349163055,-0.03003212809562683,0.07155615091323853,0.12528426945209503,-0.041964828968048096,0.08174654841423035,0.15028426051139832,-0.055344730615615845,0.08994479477405548,0.1752842664718628,-0.0698423981666565,0.09594905376434326,0.20028425753116608,-0.08510082960128784,0.09961143136024475,0.22528426349163055,-1.3776413202285767,-1.5707963705062866,0.23998594284057617,0.20000000298023224,-15.0,-15.0,-0.223035484892764,4000.0
0.0204,0.0093,0,1,-0.26811540126800537,0.1569959968328476,-0.0007718568085692823,-0.26973411440849304,0.16084301471710205,0.0045555997639894485,0.053062666207551956,0.0008198734722100198,0.0009661191143095493,0.9954282641410828,-0.007527531124651432,-0.006349751725792885,0.09499260783195496,0.011643744961476445,-0.0005476736166139661,-0.0020858076614359376,-0.9278661320775735,-0.6423750658105841,10.907509875390495,0.006767685990780592,-0.001618713140487671,0.0038470178842544556,0.005327456630766392,0.053062666207551956,0.0008198734722100198,0.0009661191143095493,-0.007527531124651432,-0.006349751725792885,0.09499260783195496,0.9954282641410828,0.011643745005130768,-0.0005476736114360392,-0.0020858077332377434,-0.001618713140487671,0.0038470178842544556,0.005327456630766392,-0.003345966339111328,0.01944349706172943,0.030327456071972847,-0.007491767406463623,0.03457774221897125,0.05532745644450188,-0.0139540433883667,0.04887710511684418,0.08032745867967606,-0.02257367968559265,0.06198951601982117,0.10532745718955994,-0.0331384539604187,0.07359206676483154,0.13032744824886322,-0.04538816213607788,0.08339908719062805,0.1553274542093277,-0.059021204710006714,0.0911690890789032,0.18032744526863098,-0.07370191812515259,0.09671072661876678,0.20532745122909546,-0.08906880021095276,0.09988759458065033,0.23032745718955994,-1.4205384254455566,-1.5707963705062866,0.23598194122314453,0.20000000298023224,-15.0,-15.0,-0.1560213571374697,8000.0
0.0404,0.0091,0,1,-0.2691635191440582,0.15700538456439972,-0.0014613778330385685,-0.2698858976364136,0.16402393579483032,0.009624149650335312,0.05957011878490448,0.0032692947424948215,-0.0009990333346650004,0.9954580664634705,-0.007554648444056511,-0.00593797629699111,0.09470394998788834,-0.002696035265007879,0.004173707100669483,0.016968007352979313,-0.9262978961381736,-0.595377044392369,10.873866255556477,0.013140426948666573,-0.0007223784923553467,0.007018551230430603,0.011085527017712593,0.05957011878490448,0.0032692947424948215,-0.0009990333346650004,-0.007554648444056511,-0.00593797629699111,0.09470394998788834,0.9954580664634705,-0.002696035197004676,0.004173707216978073,0.016968008130788803,-0.0007223784923553467,0.007018551230430603,0.011085527017712593,-0.0029453635215759277,0.02255210280418396,0.03608552739024162,-0.0075709521770477295,0.03754667937755585,0.0610855296254158,-0.014485269784927368,0.05163303017616272,0.08608552813529968,-0.02351805567741394,0.06446431577205658,0.11108552664518356,-0.034446895122528076,0.07572460174560547,0.13608552515506744,-0.04700267314910889,0.08513659238815308,0.16108551621437073,-0.06087622046470642,0.09246855974197388,0.1860855221748352,-0.07572594285011292,0.09753994643688202,0.21108552813529968,-0.09118616580963135,0.10022591054439545,0.23608551919460297,-1.4229470491409302,-1.5707963705062866,0.2236640453338623,0.20000000298023224,-15.0,-15.0,-0.22330859680552748,12000.0
0.0599,0.0095,0,1,-0.26794126629829407,0.15710414946079254,-0.0014808537671342492,-0.2701323926448822,0.16713036596775055,0.014583924785256386,0.05683453008532524,0.006136109586805105,-0.0007428870885632932,0.9954460859298706,-0.0075394571758806705,-0.006100427359342575,0.0948210209608078,-0.003903427979094115,-0.0009881729444806819,-0.0009178476115927323,-0.9264026544102683,-0.6139643898927523,10.887503433357478,0.019063135609030724,-0.0021911263465881348,0.010026216506958008,0.016064777970314026,0.05683453008532524,0.006136109586805105,-0.0007428870885632932,-0.0075394571758806705,-0.006100427359342575,0.0948210209608078,0.9954460859298706,-0.003903428092598915,-0.0009881729492917657,-0.0009178476175293326,-0.0021911263465881348,0.010026216506958008,0.016064777970314026,-0.004897028207778931,0.025482967495918274,0.041064780205488205,-0.009987592697143555,0.04032611846923828,0.06606478244066238,-0.017337441444396973,0.05419020354747772,0.09106478095054626,-0.026765644550323486,0.06673382222652435,0.11606477946043015,-0.03804001212120056,0.0776481032371521,0.14106477797031403,-0.050882965326309204,0.08666431903839111,0.1660647690296173,-0.0649782121181488,0.09356044232845306,0.1910647749900818,-0.07997876405715942,0.09816668927669525,0.21606476604938507,-0.0955151617527008,0.10036961734294891,0.24106477200984955,-1.438340663909912,-1.5707963705062866,0.23732638359069824,0.20000000298023224,-15.0,-15.0,-0.19603424120352703,16000.0
0.0798,0.0096,0,1,-0.26660844683647156,0.1579274833202362,0.000261592969764024,-0.27047601342201233,0.1702311784029007,0.019549449905753136,0.05439873784780502,0.012086442671716213,0.011391086503863335,0.9954198598861694,-0.007977076806128025,-0.006079798098653555,0.09506136178970337,-0.00021772221287709865,-0.004442616670848332,0.0024773059955796586,-0.9762495227157896,-0.6066177920988153,10.915410807128783,0.023202594369649887,-0.0038675665855407715,0.01230369508266449,0.01928785629570484,0.05439873784780502,0.012086442671716213,0.011391086503863335,-0.007977076806128025,-0.006079798098653555,0.09506136178970337,0.9954198598861694,-0.00021772221953142434,-0.004442616831511259,0.002477305941283703,-0.0038675665855407715,0.01230369508266449,0.01928785629570484,-0.0070542991161346436,0.02766852080821991,0.04428785666823387,-0.012605428695678711,0.04234565794467926,0.06928785890340805,-0.02038419246673584,0.05597372353076935,0.09428785741329193,-0.0301990807056427,0.06821712851524353,0.11928786337375641,-0.04180842638015747,0.07877440750598907,0.1442878544330597,-0.05492636561393738,0.08738560974597931,0.16928786039352417,-0.06922990083694458,0.09383869171142578,0.19428786635398865,-0.0843668282032013,0.09797477722167969,0.21928785741329193,-0.09996438026428223,0.09969198703765869,0.2442878633737564,-1.4080675840377808,-1.5707963705062866,0.2297765016555786,0.20000000298023224,-15.0,-15.0,-0.14021949366093234,20000.0
0.1013,0.0095,0,1,-0.26591426134109497,0.15843459963798523,0.00048521021381020546,-0.2709282636642456,0.1733958125114441,0.024637499824166298,0.04825520142912865,0.017398430034518242,0.011271527968347073,0.9954440593719482,-0.00841896515339613,-0.006760435178875923,0.09472387284040451,0.0039220310955758895,0.04693979130335461,-0.008683284067730543,-1.0338574225095658,-0.6797911884399627,10.877613150157508,0.028849804773926735,-0.005014002323150635,0.014961212873458862,0.02415229007601738,0.04825520142912865,0.017398430034518242,0.011271527968347073,-0.00841896515339613,-0.006760435178875923,0.09472387284040451,0.9954440593719482,0.003922031261026859,0.04693979024887085,-0.008683283813297749,-0.005014002323150635,0.014961212873458862,0.02415229007601738,-0.008690237998962402,0.030216321349143982,0.04915228858590126,-0.01470765471458435,0.04470853507518768,0.07415229082107544,-0.02291804552078247,0.05808098614215851,0.09915228933095932,-0.03311929106712341,0.0700044184923172,0.1241522878408432,-0.045060157775878906,0.08018521964550018,0.14915229380130768,-0.05844661593437195,0.08837272226810455,0.17415228486061096,-0.0729491114616394,0.09436532855033875,0.19915229082107544,-0.08821049332618713,0.09801545739173889,0.22415228188037872,-0.10385498404502869,0.09923321008682251,0.2491522878408432,-1.3866089582443237,-1.5707963705062866,0.24478673934936523,0.20000000298023224,-15.0,-15.0,-0.2158148076034669,24000.0
0.1202,0.009,0,1,-0.2697628140449524,0.15684722363948822,-0.0022369713988155127,-0.2714621126651764,0.17644338309764862,0.029561899602413177,0.043505795300006866,0.01554833073168993,-0.006291936617344618,0.9954316020011902,-0.008187532424926758,-0.006367152556777,0.09490188211202621,0.0038531636743364467,-0.06806502120597473,0.04903620674632976,-1.0032917534963974,-0.6372628298450953,10.89750180928542,0.037390708923339844,-0.001699298620223999,0.0195961594581604,0.031798869371414185,0.043505795300006866,0.01554833073168993,-0.006291936617344618,-0.008187532424926758,-0.006367152556777,0.09490188211202621,0.9954316020011902,0.003853163681924343,-0.06806502491235733,0.04903620854020119,-0.001699298620223999,0.0195961594581604,0.031798869371414185,-0.005845695734024048,0.03473024070262909,0.056798867881298065,-0.01230853796005249,0.04902935028076172,0.08179886639118195,-0.02092871069908142,0.06214141845703125,0.10679887235164642,-0.0314939022064209,0.0737435519695282,0.1317988783121109,-0.043744027614593506,0.08355008065700531,0.15679886937141418,-0.057377398014068604,0.09131954610347748,0.18179887533187866,-0.07205832004547119,0.0968606024980545,0.20679888129234314,-0.08742532134056091,0.1000368744134903,0.23179887235164642,-0.1031000018119812,0.10077010095119476,0.2567988634109497,-1.4711987972259521,-1.5707963705062866,0.24667012691497803,0.20000000298023224,-15.0,-15.0,-0.17603748934764293,28000.0
0.14,0.0091,0,1,-0.26868438720703125,0.15749147534370422,-0.0010080384090542793,-0.27210262417793274,0.17952965199947357,0.03457874804735184,0.041048843413591385,0.019581155851483345,0.00034382485318928957,0.9954642653465271,-0.008515401743352413,-0.006620835047215223,0.09451232850551605,0.027303095760736838,-0.07744141219289846,0.058358872619450344,-1.0432004359216482,-0.6630409001781783,10.853162749047604,0.04199744015932083,-0.0034182369709014893,0.022038176655769348,0.03558678552508354,0.041048843413591385,0.019581155851483345,0.00034382485318928957,-0.008515401743352413,-0.006620835047215223,0.09451232850551605,0.9954642653465271,0.027303095906972885,-0.07744140923023224,0.058358874171972275,-0.0034182369709014893,0.022038176655769348,0.03558678552508354,-0.00803956389427185,0.037034064531326294,0.06058678776025772,-0.01494985818862915,0.05112239718437195,0.0855867937207222,-0.023979008197784424,0.06395626068115234,0.11058679223060608,-0.0349045991897583,0.07521966099739075,0.13558678328990936,-0.04745769500732422,0.08463522791862488,0.16058678925037384,-0.061329156160354614,0.09197115898132324,0.18558678030967712,-0.0761774480342865,0.09704679250717163,0.2105867862701416,-0.09163689613342285,0.09973713755607605,0.23558677732944489,-0.10732689499855042,0.09997600317001343,0.26058679819107056,-1.4606791734695435,-1.5707963705062866,0.23904109001159668,0.20000000298023224,-15.0,-15.0,-0.2647156098232464,32000.0
0.16,0.0098,0,1,-0.26975178718566895,0.15714885294437408,-0.0025753832887858152,-0.2728440761566162,0.18260958790779114,0.03962085023522377,0.04540747031569481,0.020506102591753006,-0.010593154467642307,0.9954252243041992,-0.008037296123802662,-0.006642369087785482,0.09496252238750458,-0.03912224837099513,0.003237341221843574,0.0010529483562873795,-0.9891913310658951,-0.670231500340086,10.9046947907914,0.04937948286533356,-0.0030922889709472656,0.025460734963417053,0.042196232825517654,0.04540747031569481,0.020506102591753006,-0.010593154467642307,-0.008037296123802662,-0.006642369087785482,0.09496252238750458,0.9954252243041992,-0.03912224993109703,0.003237341297790408,0.0010529484134167433,-0.0030922889709472656,0.025460734963417053,0.042196232825517654,-0.008186280727386475,0.04030270874500275,0.06719623506069183,-0.015539377927780151,0.054165080189704895,0.09219623357057571,-0.02497047185897827,0.06670650839805603,0.1171962320804596,-0.0362473726272583,0.07761818170547485,0.14219623804092407,-0.04909241199493408,0.0866314172744751,0.16719622910022736,-0.06318926811218262,0.0935242623090744,0.19219623506069183,-0.0781908631324768,0.09812705218791962,0.21719622611999512,-0.09372779726982117,0.10032637417316437,0.2421962320804596,-0.10941749811172485,0.1000681072473526,0.2671962380409241,-1.4558134078979492,-1.5707963705062866,0.2826434373855591,0.20000000298023224,-15.0,-15.0,-0.16165152633567334,36000.0
0.1798,0.0094,0,1,-0.26850923895835876,0.15755873918533325,-0.0011193377431482077,-0.27366942167282104,0.18561892211437225,0.044587425887584686,0.04455861821770668,0.022117184475064278,0.0011355848982930183,0.9954062700271606,-0.008756750263273716,-0.006476629991084337,0.0951094925403595,-0.23665184006056053,-0.06499989340005086,-0.024484870035593135,-1.0695567611520551,-0.643333742052755,10.921887667737856,0.053880512714385986,-0.00516018271446228,0.028060182929039,0.04570676386356354,0.04455861821770668,0.022117184475064278,0.0011355848982930183,-0.008756750263273716,-0.006476629991084337,0.0951094925403595,0.9954062700271606,-0.23665183782577515,-0.06499989330768585,-0.024484870955348015,-0.00516018271446228,0.028060182929039,0.04570676386356354,-0.010714799165725708,0.0427359938621521,0.07070676237344742,-0.018496811389923096,0.05636219680309296,0.0957067608833313,-0.02831462025642395,0.0686032623052597,0.12070675939321518,-0.039926499128341675,0.0791577696800232,0.14570675790309906,-0.05304649472236633,0.08776584267616272,0.17070674896240234,-0.06735154986381531,0.0942155122756958,0.19570675492286682,-0.08248946070671082,0.09834796190261841,0.2207067608833313,-0.09808745980262756,0.10006147623062134,0.24570675194263458,-0.11376145482063293,0.09931379556655884,0.27070677280426025,-1.348219394683838,-1.5707963705062866,0.31291520595550537,0.20000000298023224,-15.0,-15.0,-0.12726577244278353,40000.0
0.1998,0.0082,0,1,-0.2676500976085663,0.15803712606430054,-0.0009230749565176666,-0.2745847702026367,0.18859027326107025,0.049536000937223434,0.04121590405702591,0.025942862033843994,0.020687708631157875,0.9953819513320923,-0.012532773427665234,-0.008108320645987988,0.09481541812419891,-0.8662325593324054,-0.15389216174980108,-0.14595945374505248,-1.5179364784970828,-0.7887100082188729,10.893046084887441,0.0593944676220417,-0.006934672594070435,0.030553147196769714,0.05045907571911812,0.04121590405702591,0.025942862033843994,0.020687708631157875,-0.012532773427665234,-0.008108320645987988,0.09481541812419891,0.9953819513320923,-0.8662325739860535,-0.1538921594619751,-0.14595945179462433,-0.006934672594070435,0.030553147196769714,0.05045907571911812,-0.01294282078742981,0.045049190521240234,0.0754590779542923,-0.02114468812942505,0.058426886796951294,0.10045907646417618,-0.03133833408355713,0.0703568160533905,0.12545907497406006,-0.043272703886032104,0.08054523169994354,0.15045908093452454,-0.0566539466381073,0.08874127268791199,0.175459086894989,-0.07115262746810913,0.09474310278892517,0.2004590779542923,-0.08641165494918823,0.0984029769897461,0.22545908391475677,-0.1020553708076477,0.09963074326515198,0.25045907497406006,-0.1176985502243042,0.09839615225791931,0.27545908093452454,-0.9643574953079224,-1.5707963705062866,0.4455970525741577,0.20000000298023224,-15.0,-15.0,-0.18494893814359606,44000.0
0.2195,0.0093,0,1,-0.26670438051223755,0.15883633494377136,0.0008890961762517691,-0.27559950947761536,0.19155247509479523,0.05451962351799011,0.03622078523039818,0.03342830389738083,0.06347194314002991,0.9952823519706726,-0.02242960035800934,-0.013028835877776146,0.09347885102033615,-1.6589795825998728,-0.7574252514136375,-0.24188205541488075,-2.6993170335558063,-1.245785999295182,10.760513187338336,0.06344842910766602,-0.008895128965377808,0.032716140151023865,0.0536305271089077,0.03622078523039818,0.03342830389738083,0.06347194314002991,-0.02242960035800934,-0.013028835877776146,0.09347885102033615,0.9952823519706726,-1.6589795351028442,-0.7574252486228943,-0.2418820559978485,-0.008895128965377808,0.032716140151023865,0.0536305271089077,-0.015354186296463013,0.04701696336269379,0.07863052934408188,-0.023970842361450195,0.06013131141662598,0.10363053530454636,-0.03453299403190613,0.07173626124858856,0.12863053381443024,-0.04678046703338623,0.08154603838920593,0.15363052487373352,-0.06041178107261658,0.0893191248178482,0.178630530834198,-0.07509124279022217,0.09486410021781921,0.20363053679466248,-0.09045737981796265,0.09804442524909973,0.22863052785396576,-0.10613188147544861,0.09878182411193848,0.25363051891326904,-0.12172874808311462,0.09705808758735657,0.2786305248737335,-0.330568790435791,-1.5707963705062866,0.5855368375778198,0.20000000298023224,-15.0,-15.0,-0.45001473324179586,44230.0
0.2402,0.0081,0,1,-0.27032986283302307,0.1577422320842743,6.637850310653448e-05,-0.2767219841480255,0.19452057778835297,0.059570249170064926,0.027924658730626106,0.04120611771941185,0.09162770211696625,0.9948274493217468,-0.039372533559799194,-0.023241113871335983,0.09069736301898956,-2.1516563947812615,-1.755495869455707,-0.1197366880058577,-4.738992384690032,-2.240826225378814,10.511104195816278,0.07024398446083069,-0.006392121315002441,0.036778345704078674,0.05950387194752693,0.027924658730626106,0.04120611771941185,0.09162770211696625,-0.039372533559799194,-0.023241113871335983,0.09069736301898956,0.9948274493217468,-2.15165638923645,-1.7554959058761597,-0.1197366863489151,-0.006392121315002441,0.036778345704078674,0.05950387194752693,-0.013301670551300049,0.05086703598499298,0.08450387418270111,-0.022330105304718018,0.06370139122009277,0.10950387269258499,-0.03325513005256653,0.07496537268161774,0.13450387120246887,-0.045807719230651855,0.08438162505626678,0.15950386226177216,-0.05967879295349121,0.09171828627586365,0.18450386822223663,-0.07452678680419922,0.09679469466209412,0.20950385928153992,-0.08998611569404602,0.09948590397834778,0.2345038652420044,-0.1056760847568512,0.09972557425498962,0.25950387120246887,-0.12121042609214783,0.09750783443450928,0.28450387716293335,0.27078115940093994,-1.4591758251190186,0.6248608827590942,0.20000000298023224,0.0,-15.0,-0.9488327162859052,44230.0
0.2599,0.0098,0,1,-0.26922038197517395,0.1588953286409378,0.002504912205040455,-0.2779272198677063,0.19742649793624878,0.0645773708820343,0.039948929101228714,0.06414803862571716,0.1373077630996704,0.9932133555412292,-0.05922935530543327,-0.04434432461857796,0.08972567319869995,-2.619123857242015,-2.3858266846933294,-0.18473216638416393,-7.23798547341472,-4.442464233447625,10.605131159288046,0.07357615232467651,-0.008706837892532349,0.038531169295310974,0.06207245960831642,0.039948929101228714,0.06414803862571716,0.1373077630996704,-0.05922935530543327,-0.04434432461857796,0.08972567319869995,0.9932133555412292,-2.619123935699463,-2.385826587677002,-0.18473216891288757,-0.008706837892532349,0.038531169295310974,0.06207245960831642,-0.0160561203956604,0.05239555239677429,0.0870724618434906,-0.025483816862106323,0.06493955850601196,0.11207246035337448,-0.03675773739814758,0.07585430145263672,0.13707245886325836,-0.049600303173065186,0.08487105369567871,0.16207246482372284,-0.0636952817440033,0.09176777303218842,0.18707245588302612,-0.0786956250667572,0.09637461602687836,0.2120724618434906,-0.09423193335533142,0.09857819974422455,0.23707245290279388,-0.10992172360420227,0.09832422435283661,0.26207247376441956,-0.1253785789012909,0.09561894834041595,0.28707244992256165,1.05630624294281,-1.198492169380188,0.7386900186538696,0.20000000298023224,7.5,-15.0,-0.7607787893424032,44230.0
0.2797,0.0075,0,1,-0.2694207727909088,0.16090455651283264,0.0054305908270180225,-0.27922287583351135,0.20029228925704956,0.06958312541246414,-0.008128862828016281,0.11096103489398956,0.16637010872364044,0.9899872541427612,-0.08242091536521912,-0.07234349846839905,0.08886159211397171,-1.5718880896837746,-2.4851351627940574,-0.1355676826582656,-10.22547153140569,-7.38813153445254,10.920204913277297,0.07591456919908524,-0.009802103042602539,0.03938773274421692,0.06415253132581711,-0.008128862828016281,0.11096103489398956,0.16637010872364044,-0.08242091536521912,-0.07234349846839905,0.08886159211397171,0.9899872541427612,-1.5718880891799927,-2.485135078430176,-0.13556768000125885,-0.009802103042602539,0.03938773274421692,0.06415253132581711,-0.017583757638931274,0.05301414430141449,0.08915252983570099,-0.027401238679885864,0.06525547802448273,0.11415252834558487,-0.03901281952857971,0.07581029832363129,0.13915252685546875,-0.052132606506347656,0.08441871404647827,0.16415253281593323,-0.0664374828338623,0.09086877107620239,0.1891525238752365,-0.08157527446746826,0.09500163793563843,0.214152529835701,-0.09717321395874023,0.09671556949615479,0.23915253579616547,-0.112847238779068,0.09596830606460571,0.26415255665779114,-0.1282113790512085,0.09277832508087158,0.2891525328159332,1.3869868516921997,-0.5391223430633545,0.8188947439193726,0.20000000298023224,11.25,-15.0,-0.13063128136389568,44230.0
0.3001,0.0091,0,1,-0.2737683653831482,0.1611228883266449,0.006939843762665987,-0.2806217670440674,0.20314285159111023,0.07463700324296951,-0.05259821191430092,0.14374259114265442,0.1948428899049759,0.9871059656143188,-0.09216660261154175,-0.09733004868030548,0.08747560530900955,0.24382318359916907,-2.122749245887051,-0.18365824667458946,-11.662171409159395,-10.138340494204838,11.166481245427866,0.07997220009565353,-0.0068534016609191895,0.04201996326446533,0.06769715994596481,-0.05259821191430092,0.14374259114265442,0.1948428899049759,-0.09216660261154175,-0.09733004868030548,0.08747560530900955,0.9871059656143188,0.24382318556308746,-2.1227493286132812,-0.18365824222564697,-0.0068534016609191895,0.04201996326446533,0.06769715994596481,-0.015063762664794922,0.055392444133758545,0.0926971584558487,-0.02526494860649109,0.06731590628623962,0.11769715696573257,-0.037205785512924194,0.07749675214290619,0.14269715547561646,-0.050592243671417236,0.08568429946899414,0.16769716143608093,-0.0650947093963623,0.09167692065238953,0.19269715249538422,-0.08035609126091003,0.09532710909843445,0.2176971584558487,-0.09600058197975159,0.09654492139816284,0.24269714951515198,-0.11164295673370361,0.09530043601989746,0.26769715547561646,-0.12689808011054993,0.09162425994873047,0.29269713163375854,0.911685585975647,0.011965274810791016,0.8408991098403931,0.20000000298023224,13.125,-7.1572201263137405,0.3619213829372732,44230.0
0.3197,0.0085,0,1,-0.27528125047683716,0.16353683173656464,0.01070667989552021,-0.2820718586444855,0.20587749779224396,0.07956357300281525,-0.12269560992717743,0.18644002079963684,0.22808688879013062,0.9858022928237915,-0.0815480649471283,-0.1170247420668602,0.08858344703912735,2.0641257466014094,-1.5813664131614211,-0.16195419951498663,-10.714410112361616,-12.49056841190894,11.44542492459045,0.0811179131269455,-0.006790608167648315,0.04234066605567932,0.06885689496994019,-0.12269560992717743,0.18644002079963684,0.22808688879013062,-0.0815480649471283,-0.1170247420668602,0.08858344703912735,0.9858022928237915,2.0641257762908936,-1.5813664197921753,-0.16195419430732727,-0.006790608167648315,0.04234066605567932,0.06885689496994019,-0.015410929918289185,0.055452629923820496,0.09385689347982407,-0.025976240634918213,0.06705465912818909,0.11885689198970795,-0.03822645545005798,0.07686106860637665,0.14385689795017242,-0.051859915256500244,0.08463038504123688,0.1688569039106369,-0.06654089689254761,0.09017129242420197,0.19385689496994019,-0.08190792798995972,0.09334738552570343,0.21885690093040466,-0.09758260846138,0.09408046305179596,0.24385689198970795,-0.11317899823188782,0.09235240519046783,0.26885688304901123,-0.12831303477287292,0.08820585906505585,0.2938568890094757,-0.08074390888214111,0.8182755708694458,0.6727598905563354,0.20000000298023224,4.249357399832217,3.921389936843129,0.9198087412624127,44230.0
0.3401,0.0051,0,1,-0.2786988914012909,0.16558603942394257,0.016337309032678604,-0.28363367915153503,0.20861288905143738,0.08457692712545395,-0.1864374876022339,0.16914692521095276,0.27226772904396057,0.9858009219169617,-0.05553773418068886,-0.12963168323040009,0.09113556891679764,2.592382257788202,-0.8203468263825582,-0.1691350139202218,-7.893241117704385,-14.208969071093101,11.549059381946062,0.08082268387079239,-0.004934787750244141,0.04302684962749481,0.06823961436748505,-0.1864374876022339,0.16914692521095276,0.27226772904396057,-0.05553773418068886,-0.12963168323040009,0.09113556891679764,0.9858009219169617,2.5923821926116943,-0.8203468322753906,-0.16913501918315887,-0.004934787750244141,0.04302684962749481,0.06823961436748505,-0.013963758945465088,0.055860817432403564,0.09323962032794952,-0.024889260530471802,0.06712433695793152,0.118239626288414,-0.03744223713874817,0.07654005289077759,0.14323961734771729,-0.0513136088848114,0.08387613296508789,0.16823962330818176,-0.06616181135177612,0.08895193040370941,0.19323961436748505,-0.08162125945091248,0.09164248406887054,0.21823962032794952,-0.09731125831604004,0.09188149869441986,0.2432396113872528,-0.11284548044204712,0.08966313302516937,0.2682396173477173,-0.12784141302108765,0.08504198491573334,0.29323962330818176,-1.3412175178527832,1.5143054723739624,0.5465341806411743,0.20000000298023224,-5.3753213000838915,9.460694968421564,1.1270776559736277,44230.0
0.3611,0.0093,0,1,-0.28138467669487,0.168855220079422,0.025186941027641296,-0.28528791666030884,0.21130883693695068,0.0896112248301506,-0.23120492696762085,0.16895976662635803,0.33231234550476074,0.9867574572563171,-0.028119390830397606,-0.12991753220558167,0.09294301271438599,1.9306615617301428,0.47409114356594384,-0.19142653777153928,-4.719720672177299,-14.546590964106093,11.364355114127177,0.07725305110216141,-0.0039032399654388428,0.042453616857528687,0.06442428380250931,-0.23120492696762085,0.16895976662635803,0.33231234550476074,-0.028119390830397606,-0.12991753220558167,0.09294301271438599,0.9867574572563171,1.9306615591049194,0.47409114241600037,-0.19142653048038483,-0.0039032399654388428,0.042453616857528687,0.06442428380250931,-0.01333358883857727,0.05499561131000519,0.08942428231239319,-0.02460983395576477,0.06590795516967773,0.11442428827285767,-0.037454307079315186,0.07492196559906006,0.13942427933216095,-0.05155077576637268,0.0818156898021698,0.16442428529262543,-0.066552072763443,0.08641934394836426,0.1894242763519287,-0.0820888876914978,0.08861961960792542,0.2144242823123932,-0.09777858853340149,0.08836230635643005,0.23942427337169647,-0.11323487758636475,0.08565375208854675,0.26442426443099976,-0.1280771791934967,0.08056065440177917,0.2894243001937866,-1.5707963705062866,1.5707963705062866,0.5913738012313843,0.20000000298023224,-10.187660650041945,12.230347484210782,0.757669120335877,44230.0
0.3801,0.0092,0,1,-0.282195508480072,0.17073602974414825,0.030256424099206924,-0.286996454000473,0.21390680968761444,0.09456025063991547,-0.24247883260250092,0.14379236102104187,0.3519102931022644,0.9888444542884827,-0.012289583683013916,-0.11640636622905731,0.09210401028394699,0.5045971877996107,1.6208078289054946,-0.08942462176808944,-2.6930315000981615,-13.176512020797661,10.9537735457424,0.0775999203324318,-0.004800945520401001,0.043170779943466187,0.06430383026599884,-0.24247883260250092,0.14379236102104187,0.3519102931022644,-0.012289583683013916,-0.11640636622905731,0.09210401028394699,0.9888444542884827,0.5045971870422363,1.6208078861236572,-0.08942462503910065,-0.004800945520401001,0.043170779943466187,0.06430383026599884,-0.014616668224334717,0.05541352927684784,0.08930382132530212,-0.026226729154586792,0.06597001850605011,0.1143038272857666,-0.03934526443481445,0.07458032667636871,0.13930383324623108,-0.05364921689033508,0.08103244006633759,0.16430382430553436,-0.06878641247749329,0.08516748249530792,0.18930383026599884,-0.08438411355018616,0.08688364923000336,0.21430383622646332,-0.10005822777748108,0.08613865077495575,0.2393038272857666,-0.11542284488677979,0.08295087516307831,0.2643038332462311,-0.1300995945930481,0.07739876210689545,0.28930383920669556,-1.283021092414856,1.2981153726577759,0.6640418767929077,0.20000000298023224,-12.593830325020972,13.61517374210539,-0.06349401643366683,44230.0
0.4004,0.0089,0,1,-0.2824617028236389,0.1757858693599701,0.04024721309542656,-0.28881096839904785,0.21648624539375305,0.09957975149154663,-0.24937804043293,0.13426260650157928,0.39834365248680115,0.9915688037872314,-0.014119070954620838,-0.09248603135347366,0.08964529633522034,-0.9154913189608925,2.6385630689868305,-0.0842305255360534,-2.598087991064366,-10.421086188666836,10.56879913462668,0.07223007827997208,-0.0063492655754089355,0.04070037603378296,0.05933253839612007,-0.24937804043293,0.13426260650157928,0.39834365248680115,-0.014119070954620838,-0.09248603135347366,0.08964529633522034,0.9915688037872314,-0.9154913425445557,2.6385631561279297,-0.08423052728176117,-0.0063492655754089355,0.04070037603378296,0.05933253839612007,-0.016546159982681274,0.052627503871917725,0.08433254063129425,-0.028483331203460693,0.06281264126300812,0.10933253169059753,-0.041866838932037354,0.07100500166416168,0.134332537651062,-0.05636715888977051,0.07700285315513611,0.1593325287103653,-0.07162719964981079,0.08065852522850037,0.18433253467082977,-0.08727127313613892,0.08188197016716003,0.20933252573013306,-0.10291409492492676,0.08064311742782593,0.23433254659175873,-0.11817055940628052,0.07697239518165588,0.259332537651062,-0.13266494870185852,0.07096026837825775,0.2843325436115265,-0.300586462020874,0.674850344657898,0.7591887712478638,0.20000000298023224,-13.796915162510487,14.307586871052695,-0.8334428386651171,44230.0
0.4205,0.0097,0,1,-0.2814447581768036,0.18201066553592682,0.05259887874126434,-0.29071611166000366,0.2190203070640564,0.10462572425603867,-0.2238529920578003,0.1561119109392166,0.4617752134799957,0.9937963485717773,-0.029684854671359062,-0.062368206679821014,0.08715435117483139,-1.7682109989222359,2.818600215527239,-0.11346405314423161,-4.035295177513669,-6.822174998815795,10.264455540086377,0.06451716274023056,-0.009271353483200073,0.03700964152812958,0.05202684551477432,-0.2238529920578003,0.1561119109392166,0.4617752134799957,-0.029684854671359062,-0.062368206679821014,0.08715435117483139,0.9937963485717773,-1.768211007118225,2.8186001777648926,-0.11346404999494553,-0.009271353483200073,0.03700964152812958,0.05202684551477432,-0.01984122395515442,0.04860754311084747,0.0770268440246582,-0.032095253467559814,0.058409154415130615,0.10202684998512268,-0.04573175311088562,0.06617315113544464,0.12702684104442596,-0.0604148805141449,0.07170833647251129,0.15202684700489044,-0.07578316330909729,0.07487843930721283,0.17702685296535492,-0.09145814180374146,0.0756053775548935,0.2020268589258194,-0.10705384612083435,0.07387124001979828,0.2270268350839615,-0.12218624353408813,0.06971876323223114,0.25202685594558716,-0.13648277521133423,0.06325018405914307,0.27702683210372925,0.9997586011886597,-0.20194637775421143,0.7790719270706177,0.20000000298023224,0.6015424187447564,1.3684558688908837,-1.4421300277457207,44230.0
0.4408,0.0093,0,1,-0.2823079228401184,0.1898139864206314,0.06087258458137512,-0.29267799854278564,0.22146537899971008,0.10961522161960602,-0.22225381433963776,0.201851487159729,0.4820476472377777,0.9945301413536072,-0.051736362278461456,-0.036970436573028564,0.08285098522901535,-1.8504752460464564,2.3659019786817925,-0.1090580944696693,-6.272868482263748,-3.724763724257999,9.72840227164223,0.0590355284512043,-0.010370075702667236,0.031651392579078674,0.048742637038230896,-0.22225381433963776,0.201851487159729,0.4820476472377777,-0.051736362278461456,-0.036970436573028564,0.08285098522901535,0.9945301413536072,-1.8504751920700073,2.3659019470214844,-0.10905809700489044,-0.010370075702667236,0.031651392579078674,0.048742637038230896,-0.02129828929901123,0.04291228950023651,0.07374264299869537,-0.03385353088378906,0.05232499539852142,0.09874263405799866,-0.04772666096687317,0.059657737612724304,0.12374264001846313,-0.06257611513137817,0.0647299736738205,0.1487426459789276,-0.07803618907928467,0.06741677224636078,0.1737426370382309,-0.093726247549057,0.06765203177928925,0.19874262809753418,-0.10925993323326111,0.06542991101741791,0.22374263405799866,-0.12425476312637329,0.06080515682697296,0.24874264001846313,-0.13834148645401,0.0538916289806366,0.2737426459789276,1.5707963705062866,-0.40656208992004395,0.8430908918380737,0.20000000298023224,7.800771209372378,-6.815772065554558,-2.5142365646340035,44230.0
0.4602,0.0098,0,1,-0.2863919138908386,0.19541625678539276,0.06833206862211227,-0.2947225272655487,0.223855659365654,0.11462147533893585,-0.23511721193790436,0.23892612755298615,0.4982202351093292,0.9941815733909607,-0.07099220901727676,-0.016301007941365242,0.07934330403804779,-0.8660557254360242,1.5439965372712656,-0.11416476411654508,-8.266475855149226,-1.2117133193572305,9.213490000442379,0.05496278777718544,-0.008330613374710083,0.02843940258026123,0.04628940671682358,-0.23511721193790436,0.23892612755298615,0.4982202351093292,-0.07099220901727676,-0.016301007941365242,0.07934330403804779,0.9941815733909607,-0.8660557270050049,1.5439965724945068,-0.11416476219892502,-0.008330613374710083,0.02843940258026123,0.04628940671682358,-0.019607573747634888,0.03935103118419647,0.07128941267728806,-0.03245261311531067,0.04836420714855194,0.09628940373659134,-0.04654952883720398,0.055257007479667664,0.12128940969705582,-0.06155112385749817,0.059859707951545715,0.1462894082069397,-0.07708805799484253,0.06205900013446808,0.17128941416740417,-0.09277775883674622,0.061800673604011536,0.19628939032554626,-0.10823386907577515,0.05909110605716705,0.22128939628601074,-0.12307584285736084,0.05399705469608307,0.24628940224647522,-0.1369381844997406,0.046643927693367004,0.2712894082069397,1.5707963705062866,-0.1481630802154541,0.9005640745162964,0.20000000298023224,11.400385604686189,-7.652445620779173,-3.5440611070336905,44230.0
0.4801,0.0097,0,1,-0.314506471157074,0.18235667049884796,0.0640266090631485,-0.296843558549881,0.2261829376220703,0.11963317543268204,-0.29607897996902466,0.20678117871284485,0.47427496314048767,0.9943777918815613,-0.07148931920528412,-0.011045132763683796,0.07731812447309494,0.6096232730236569,0.06609488537175057,-0.07381050829695486,-8.273083804830382,-0.6251797934757334,8.93740432596061,0.07297129929065704,0.017662912607192993,0.04382626712322235,0.05560656636953354,-0.29607897996902466,0.20678117871284485,0.47427496314048767,-0.07148931920528412,-0.011045132763683796,0.07731812447309494,0.9943777918815613,0.6096232533454895,0.06609488278627396,-0.07381051033735275,0.017662912607192993,0.04382626712322235,0.05560656636953354,0.006047993898391724,0.05437743663787842,0.08060656487941742,-0.007074475288391113,0.0629817396402359,0.1056065708398819,-0.021381378173828125,0.06942729651927948,0.13060656189918518,-0.03652048110961914,0.07355539500713348,0.15560656785964966,-0.05211895704269409,0.07526440918445587,0.18060655891895294,-0.06779271364212036,0.07451222836971283,0.20560656487941742,-0.08315587043762207,0.07131741940975189,0.2306065708398819,-0.09783008694648743,0.0657585859298706,0.25560659170150757,-0.11145403981208801,0.057972654700279236,0.28060656785964966,0.6524254083633423,1.5707963705062866,0.8778704404830933,0.20000000298023224,13.200192802343095,3.673777189610413,-4.096232455997256,44230.0
0.5004,0.0101,0,1,-0.317678838968277,0.18726958334445953,0.07167066633701324,-0.2990294396877289,0.22843493521213531,0.12462829798460007,-0.27293306589126587,0.22811737656593323,0.5027517676353455,0.9951517581939697,-0.060704220086336136,-0.011275983415544033,0.07654336839914322,1.7522544029349172,-1.0393995492087367,-0.04358986754717118,-7.0396757062189215,-0.7534393553390757,8.842964015637007,0.06961966305971146,0.018649399280548096,0.04116535186767578,0.05295763164758682,-0.27293306589126587,0.22811737656593323,0.5027517676353455,-0.060704220086336136,-0.011275983415544033,0.07654336839914322,0.9951517581939697,1.7522543668746948,-1.03939950466156,-0.043589867651462555,0.018649399280548096,0.04116535186767578,0.05295763164758682,0.006709098815917969,0.05134683847427368,0.0779576301574707,-0.006676912307739258,0.05953511595726013,0.10295763611793518,-0.02117905020713806,0.06552855670452118,0.12795762717723846,-0.03644019365310669,0.06917954981327057,0.15295763313770294,-0.05208462476730347,0.0703982561826706,0.17795763909816742,-0.06772708892822266,0.06915460526943207,0.2029576450586319,-0.08298242092132568,0.06547923386096954,0.227957621216774,-0.09747496247291565,0.05946268141269684,0.25295764207839966,-0.11084789037704468,0.051253050565719604,0.27795761823654175,0.1359642744064331,1.5707963705062866,0.7151328325271606,0.20000000298023224,10.495185945195153,9.336888594805206,-4.285113076644475,44230.0
0.5201,0.0101,0,1,-0.3194887638092041,0.19460652768611908,0.08664596825838089,-0.3012835383415222,0.23061592876911163,0.12962041795253754,-0.26399970054626465,0.23680619895458221,0.5528448224067688,0.9962217211723328,-0.037539269775152206,-0.019682740792632103,0.07578705251216888,2.2604535826878873,-0.8282379058505174,-0.09159778618472932,-4.463386082116818,-1.9213022796866097,8.775597958169833,0.058948371559381485,0.018205225467681885,0.036009401082992554,0.04297444969415665,-0.26399970054626465,0.23680619895458221,0.5528448224067688,-0.037539269775152206,-0.019682740792632103,0.07578705251216888,0.9962217211723328,2.260453701019287,-0.8282378911972046,-0.0915977880358696,0.018205225467681885,0.036009401082992554,0.04297444969415665,0.005951493978500366,0.045811429619789124,0.06797445565462112,-0.0076847076416015625,0.053575873374938965,0.0929744616150856,-0.0223676860332489,0.05911155045032501,0.11797445267438889,-0.03773584961891174,0.06228215992450714,0.14297446608543396,-0.05341079831123352,0.0630096048116684,0.16797447204589844,-0.06900656223297119,0.06127600371837616,0.19297447800636292,-0.08413910865783691,0.05712403357028961,0.217974454164505,-0.09843584895133972,0.05065593123435974,0.24297446012496948,-0.11154472827911377,0.0420309454202652,0.26797446608543396,-0.3973386287689209,1.5707963705062866,0.6398423910140991,0.20000000298023224,-2.2524070274024233,12.168444297402603,-4.419845191578806,44230.0
0.54,0.0099,0,1,-0.3245057165622711,0.19808626174926758,0.09932618588209152,-0.3035992681980133,0.23272016644477844,0.13460052013397217,-0.2679634392261505,0.21417094767093658,0.5895203948020935,0.9967908263206482,-0.012730522081255913,-0.022591302171349525,0.07572168111801147,1.9740846696199938,0.22071385291135867,-0.059553708164892805,-1.651919359139871,-2.4707668412813293,8.723924256008809,0.053673695772886276,0.020906448364257812,0.034633904695510864,0.035274334251880646,-0.2679634392261505,0.21417094767093658,0.5895203948020935,-0.012730522081255913,-0.022591302171349525,0.07572168111801147,0.9967908263206482,1.9740846157073975,0.22071385383605957,-0.059553708881139755,0.020906448364257812,0.034633904695510864,0.035274334251880646,0.008352071046829224,0.044047772884368896,0.06027434021234512,-0.0055204033851623535,0.05138179659843445,0.08527433127164841,-0.020369350910186768,0.056455403566360474,0.11027433723211288,-0.03582918643951416,0.059143632650375366,0.13527435064315796,-0.05151921510696411,0.05938035249710083,0.16027432680130005,-0.06705310940742493,0.0571596622467041,0.18527433276176453,-0.08204838633537292,0.05253627896308899,0.210274338722229,-0.09613576531410217,0.04562406241893768,0.23527434468269348,-0.10896837711334229,0.03659318387508392,0.26027432084083557,-1.0570261478424072,1.5707963705062866,0.5594190359115601,0.20000000298023224,-8.626203513701212,13.5842221487013,-4.523192595900862,44230.0
0.5607,0.0094,0,1,-0.3276716470718384,0.2034505009651184,0.10685233771800995,-0.30598121881484985,0.23475220799446106,0.1395837962627411,-0.2521509528160095,0.19952063262462616,0.5810078978538513,0.9971116781234741,0.004434645175933838,-0.01381460390985012,0.07453727722167969,0.9039011753178404,1.3249833623872749,-0.0168124974706701,0.3888676219126109,-1.6165569700070401,8.544678698707708,0.05021573230624199,0.021690428256988525,0.03130170702934265,0.03273145854473114,-0.2521509528160095,0.19952063262462616,0.5810078978538513,0.004434645175933838,-0.01381460390985012,0.07453727722167969,0.9971116781234741,0.9039011597633362,1.3249833583831787,-0.01681249774992466,0.021690428256988525,0.03130170702934265,0.03273145854473114,0.008847475051879883,0.040317922830581665,0.05773146450519562,-0.005247771739959717,0.04721406102180481,0.0827314555644989,-0.02024829387664795,0.051820337772369385,0.10773146152496338,-0.03578472137451172,0.05402326583862305,0.13273146748542786,-0.05147445201873779,0.053768664598464966,0.15773145854473114,-0.06693121790885925,0.05106276273727417,0.18273146450519562,-0.08177438378334045,0.045972228050231934,0.2077314704656601,-0.0956384539604187,0.038622379302978516,0.23273147642612457,-0.10818210244178772,0.029194191098213196,0.25773143768310547,-0.5325971841812134,1.5707963705062866,0.5891867876052856,0.20000000298023224,-11.813101756850607,14.29211107435065,-4.881683710503057,44230.0
0.5805,0.0084,0,1,-0.32723110914230347,0.21216143667697906,0.12120872735977173,-0.3084339201450348,0.23671509325504303,0.14458374679088593,-0.22139501571655273,0.20350056886672974,0.6126388311386108,0.9972569346427917,0.0058944993652403355,0.004367681685835123,0.07363978028297424,-0.6295120263604777,1.8158785197994007,0.028463913584442734,0.7105037745973642,0.44939044202539835,8.449148538192354,0.038763485848903656,0.018797188997268677,0.024553656578063965,0.023375019431114197,-0.22139501571655273,0.20350056886672974,0.6126388311386108,0.0058944993652403355,0.004367681685835123,0.07363978028297424,0.9972569346427917,-0.6295120120048523,1.8158785104751587,0.02846391312777996,0.018797188997268677,0.024553656578063965,0.023375019431114197,0.005677402019500732,0.03316202759742737,0.048375025391578674,-0.008627533912658691,0.03961203992366791,0.07337501645088196,-0.02376532554626465,0.04374484717845917,0.09837502241134644,-0.03936326503753662,0.04545868933200836,0.12337502837181091,-0.05503728985786438,0.0447113960981369,0.1483750343322754,-0.07040143013000488,0.04152132570743561,0.17337501049041748,-0.08507737517356873,0.03596706688404083,0.19837501645088196,-0.09870374202728271,0.028185367584228516,0.22337502241134644,-0.11094504594802856,0.01836782693862915,0.2483750283718109,1.0316649675369263,0.5506695508956909,0.6820241212844849,0.20000000298023224,1.5934491215746966,14.646055537175325,-5.07274403153375,44230.0
0.6007,0.0095,0,1,-0.32981595396995544,0.21702469885349274,0.13469469547271729,-0.31094738841056824,0.2386002242565155,0.14958436787128448,-0.1987013816833496,0.20481082797050476,0.6434985399246216,0.9969713687896729,-0.006444911006838083,0.0229511596262455,0.07401273399591446,-1.7824706286629561,1.7299850498996745,0.017326745554785996,-0.542241622119133,2.677679249183517,8.478733371603571,0.03229904547333717,0.018868565559387207,0.021575525403022766,0.0148896723985672,-0.1987013816833496,0.20481082797050476,0.6434985399246216,-0.006444911006838083,0.0229511596262455,0.07401273399591446,0.9969713687896729,-1.7824705839157104,1.729984998703003,0.01732674613595009,0.018868565559387207,0.021575525403022766,0.0148896723985672,0.005484819412231445,0.02976749837398529,0.03988967835903168,-0.009015679359436035,0.035764917731285095,0.06488968431949615,-0.02427583932876587,0.03942014276981354,0.08988967537879944,-0.039919912815093994,0.04064314067363739,0.11488968133926392,-0.05556270480155945,0.03940381109714508,0.1398896872997284,-0.07081905007362366,0.03573267161846161,0.16488969326019287,-0.08531326055526733,0.029720112681388855,0.18988966941833496,-0.09868845343589783,0.021514177322387695,0.21488967537879944,-0.1106153130531311,0.011316925287246704,0.23988968133926392,1.5707963705062866,-0.07028424739837646,0.7316783666610718,0.1354829967021942,8.296724560787348,5.3095323974975095,-5.013574364711333,44230.0
0.6207,0.0092,1,1,-0.3281923532485962,0.22551774978637695,0.1564633995294571,-0.31355151534080505,0.240427628159523,0.1546478569507599,-0.15927836298942566,0.22929546236991882,0.7285833358764648,0.9960569143295288,-0.02621137723326683,0.040957264602184296,0.07418994605541229,-1.4164355152722687,1.7123979335349546,-0.058039534637614625,-2.6542199249902514,4.903671844527084,8.405777601688333,0.020975099876523018,0.014640837907791138,0.014909878373146057,-0.0018155425786972046,-0.15927836298942566,0.22929546236991882,0.7285833358764648,-0.02621137723326683,0.040957264602184296,0.07418994605541229,0.9960569143295288,-1.4164354801177979,1.7123979330062866,-0.05803953483700752,0.014640837907791138,0.014909878373146057,-0.0018155425786972046,0.001003265380859375,0.022671982645988464,0.02318444848060608,-0.013680636882781982,0.028205126523971558,0.04818445444107056,-0.02904936671257019,0.03137308359146118,0.07318444550037384,-0.04472443461418152,0.032097846269607544,0.09818445146083832,-0.06031990051269531,0.030361533164978027,0.1231844574213028,-0.07545173168182373,0.02620697021484375,0.14818446338176727,-0.0897473692893982,0.0197363942861557,0.17318443953990936,-0.10285475850105286,0.011109158396720886,0.19818444550037384,-0.11445119976997375,0.000537678599357605,0.22318445146083832,1.5707963705062866,-1.1676409244537354,0.6413370370864868,0.021362630650401115,11.648362280393673,-4.845233801251245,-5.159485904541822,40230.0
0.6405,0.01,1,1,-0.3281140625476837,0.23112908005714417,0.17230156064033508,-0.31618553400039673,0.24215422570705414,0.15966057777404785,-0.11188455671072006,0.24665473401546478,0.7647696137428284,0.9950184226036072,-0.03652932867407799,0.05657551437616348,0.07349281758069992,0.09534909825145813,0.8286419073878825,-0.01924110168803791,-3.717180039626693,6.774189369361935,8.228383694135402,0.020582471042871475,0.011928528547286987,0.011025145649909973,-0.012640982866287231,-0.11188455671072006,0.24665473401546478,0.7647696137428284,-0.03652932867407799,0.05657551437616348,0.07349281758069992,0.9950184226036072,0.09534909576177597,0.8286418914794922,-0.019241102039813995,0.011928528547286987,0.011025145649909973,-0.012640982866287231,-0.0019466876983642578,0.018353939056396484,0.012359008193016052,-0.016797572374343872,0.023421943187713623,0.03735901415348053,-0.032258421182632446,0.026104331016540527,0.06235902011394501,-0.04794853925704956,0.02633512020111084,0.08735901117324829,-0.06348159909248352,0.024108588695526123,0.11235901713371277,-0.07847508788108826,0.01947954297065735,0.13735902309417725,-0.09255987405776978,0.012562006711959839,0.16235899925231934,-0.10538908839225769,0.0035262852907180786,0.1873590052127838,-0.11664685606956482,-0.007405117154121399,0.2123590111732483,1.5707963705062866,-1.5707963705062866,0.434090256690979,0.021362630650401115,13.324181140196837,-9.922616900625624,-5.514273719647659,36230.0
0.6601,0.0097,1,1,-0.32475441694259644,0.2495594322681427,0.18475477397441864,-0.31882476806640625,0.24376878142356873,0.1645849049091339,-0.0754108801484108,0.3458963930606842,0.7533518075942993,0.9947656989097595,-0.03783591464161873,0.062333155423402786,0.07156343758106232,1.4053242745722403,-0.43847502583263287,-0.009972596813289512,-3.836931936969489,7.436603795744267,7.980066973407393,0.021806329488754272,0.0059296488761901855,-0.005790650844573975,-0.02016986906528473,-0.0754108801484108,0.3458963930606842,0.7533518075942993,-0.03783591464161873,0.062333155423402786,0.07156343758106232,0.9947656989097595,1.4053242206573486,-0.43847501277923584,-0.009972596541047096,0.0059296488761901855,-0.005790650844573975,-0.02016986906528473,-0.00816565752029419,0.0011053979396820068,0.004830121994018555,-0.02316620945930481,0.005711555480957031,0.029830127954483032,-0.03870263695716858,0.00791439414024353,0.054830119013786316,-0.05439236760139465,0.0076596736907958984,0.0798301249742508,-0.06984913349151611,0.0049536824226379395,0.10483013093471527,-0.08469223976135254,-0.00013697147369384766,0.12983013689517975,-0.0985562801361084,-0.0074869245290756226,0.15483011305332184,-0.11109983921051025,-0.016915202140808105,0.17983011901378632,-0.12201404571533203,-0.02818964421749115,0.2048301249742508,1.5707963705062866,-1.5707963705062866,0.41802144050598145,0.021362630650401115,14.162090570098417,-12.461308450312812,-6.010907161103676,32230.0
0.6804,0.0095,1,1,-0.3258035480976105,0.25919318199157715,0.19423645734786987,-0.3215528726577759,0.24532301723957062,0.16958224773406982,-0.05330744758248329,0.37600505352020264,0.7242192029953003,0.995793879032135,-0.022557057440280914,0.05439288169145584,0.07018022239208221,2.006970181708619,-1.7972815327493228,0.023774746453301913,-2.1504549815803857,6.401463502288736,7.942412299256392,0.028605589643120766,0.004250675439834595,-0.01387016475200653,-0.02465420961380005,-0.05330744758248329,0.37600505352020264,0.7242192029953003,-0.022557057440280914,0.05439288169145584,0.07018022239208221,0.995793879032135,2.006970167160034,-1.7972815036773682,0.02377474680542946,0.004250675439834595,-0.01387016475200653,-0.02465420961380005,-0.010054200887680054,-0.00742003321647644,0.0003457963466644287,-0.025191962718963623,-0.003287076950073242,0.025345787405967712,-0.04078987240791321,-0.0015730857849121094,0.05034579336643219,-0.05646389722824097,-0.002320230007171631,0.07534578442573547,-0.07182806730270386,-0.005510151386260986,0.10034579038619995,-0.08650407195091248,-0.011064276099205017,0.12534579634666443,-0.10013052821159363,-0.018845856189727783,0.1503458023071289,-0.11237192153930664,-0.028663277626037598,0.175345778465271,-0.12292680144309998,-0.04027479887008667,0.20034578442573547,1.5707963705062866,-1.566921591758728,0.41547322273254395,0.021362630650401115,14.581045285049209,-13.730654225156407,-6.0862165094057055,29452.0
0.7006,0.009,1,1,-0.320576012134552,0.2730138301849365,0.21137715876102448,-0.3243548572063446,0.24680425226688385,0.1746266931295395,-0.014178531244397163,0.41006162762641907,0.7339105606079102,0.9968981742858887,-0.0024149389937520027,0.03723053261637688,0.06928238272666931,2.0274015541175436,-2.380640711102618,0.02360234630401671,0.019761522435453916,4.276212879897379,7.951815684638245,0.04529700055718422,-0.0037788450717926025,-0.026209577918052673,-0.036750465631484985,-0.014178531244397163,0.41006162762641907,0.7339105606079102,-0.0024149389937520027,0.03723053261637688,0.06928238272666931,0.9968981742858887,2.0274014472961426,-2.380640745162964,0.02360234595835209,-0.0037788450717926025,-0.026209577918052673,-0.036750465631484985,-0.018280893564224243,-0.020216017961502075,-0.011750459671020508,-0.03354203701019287,-0.01656484603881836,0.01324954628944397,-0.04918643832206726,-0.015345990657806396,0.03824953734874725,-0.06482893228530884,-0.016589492559432983,0.06324954330921173,-0.08008429408073425,-0.02026468515396118,0.08824954926967621,-0.094576895236969,-0.026281103491783142,0.11324955523014069,-0.10794991254806519,-0.03449060022830963,0.13824953138828278,-0.1198740303516388,-0.04469101130962372,0.16324953734874725,-0.13005566596984863,-0.056631192564964294,0.18824954330921173,1.5707963705062866,-1.4859496355056763,0.42874014377593994,0.021362630650401115,14.790522642524603,-14.365327112578203,-6.067409738641982,29452.0
0.7209,0.0097,1,1,-0.3217545449733734,0.28088927268981934,0.22243370115756989,-0.32717183232307434,0.24818162620067596,0.1796175241470337,-0.010709118098020554,0.4052712917327881,0.6899791955947876,0.9973850250244141,0.018263911828398705,0.013796351850032806,0.06853567808866501,1.7334226582347487,-2.5098881798619077,0.046527167781960456,2.196994230258999,1.433523246379575,7.889315316939246,0.05415128916501999,-0.005417287349700928,-0.03270764648914337,-0.042816177010536194,-0.010709118098020554,0.4052712917327881,0.6899791955947876,0.018263911828398705,0.013796351850032806,0.06853567808866501,0.9973850250244141,1.7334226369857788,-2.509888172149658,0.04652716591954231,-0.005417287349700928,-0.03270764648914337,-0.042816177010536194,-0.020100146532058716,-0.027171701192855835,-0.017816171050071716,-0.03546825051307678,-0.024000823497772217,0.007183820009231567,-0.05114319920539856,-0.023273080587387085,0.03218381106853485,-0.06673899292945862,-0.025006383657455444,0.05718381702899933,-0.0818716287612915,-0.029158085584640503,0.0821838229894638,-0.09616848826408386,-0.03562593460083008,0.10718382894992828,-0.10927751660346985,-0.04425068199634552,0.13218383491039276,-0.12087595462799072,-0.05481994152069092,0.15718381106853485,-0.1306782066822052,-0.06707347929477692,0.18218381702899933,1.5707963705062866,-1.0807722806930542,0.503750205039978,0.021362630650401115,14.895261321262302,-14.682663556289102,-6.19241047403998,29452.0
0.7401,0.0099,1,1,-0.322274774312973,0.2851242423057556,0.22711411118507385,-0.33002161979675293,0.24946612119674683,0.18459272384643555,-0.011081904172897339,0.40656375885009766,0.6564467549324036,0.9970318078994751,0.0359179824590683,-0.010240240953862667,0.06731010228395462,1.3214177891618222,-2.179988034563906,0.011673109433386472,4.029300616894832,-1.447157517937329,7.673486773321664,0.05603198707103729,-0.007746845483779907,-0.03565812110900879,-0.042521387338638306,-0.011081904172897339,0.40656375885009766,0.6564467549324036,0.0359179824590683,-0.010240240953862667,0.06731010228395462,0.9970318078994751,1.3214178085327148,-2.179988145828247,0.011673109605908394,-0.007746845483779907,-0.03565812110900879,-0.042521387338638306,-0.02259555459022522,-0.03058379888534546,-0.017521381378173828,-0.03805527091026306,-0.027894794940948486,0.007478609681129456,-0.053745269775390625,-0.02765733003616333,0.03247860074043274,-0.06927928328514099,-0.02987724542617798,0.05747860670089722,-0.0842747688293457,-0.0344998836517334,0.0824786126613617,-0.09836247563362122,-0.04141142964363098,0.10747861862182617,-0.11119556427001953,-0.0504416823387146,0.13247862458229065,-0.12245798110961914,-0.06136828660964966,0.15747860074043274,-0.13187247514724731,-0.07392220199108124,0.18247860670089722,1.5707963705062866,-1.0114794969558716,0.6378370523452759,0.021362630650401115,14.947630660631152,-14.84133177814455,-6.624067561275152,29452.0
0.7607,0.0086,1,1,-0.314216673374176,0.3034383952617645,0.2515278160572052,-0.33291059732437134,0.25066107511520386,0.18956869840621948,0.016248522326350212,0.40831905603408813,0.6309077143669128,0.9962309002876282,0.04833761975169182,-0.027935409918427467,0.06637068837881088,1.0738963403358874,-1.9829707060712067,0.05801867875732794,5.323651842669385,-3.5590177257905555,7.457498869440109,0.08350952714681625,-0.018693923950195312,-0.05277732014656067,-0.06195911765098572,0.016248522326350212,0.40831905603408813,0.6309077143669128,0.04833761975169182,-0.027935409918427467,0.06637068837881088,0.9962309002876282,1.0738962888717651,-1.9829707145690918,0.058018676936626434,-0.018693923950195312,-0.05277732014656067,-0.06195911765098572,-0.03369399905204773,-0.04816964268684387,-0.03695911169052124,-0.049230217933654785,-0.045965224504470825,-0.011959120631217957,-0.06491997838020325,-0.04621833562850952,0.013040870428085327,-0.0803770124912262,-0.04892274737358093,0.038040876388549805,-0.0952206552028656,-0.05401189625263214,0.06304088234901428,-0.10908544063568115,-0.0613604336977005,0.08804088830947876,-0.12162995338439941,-0.07078742980957031,0.11304089426994324,-0.1325453221797943,-0.08206075429916382,0.13804087042808533,-0.14156275987625122,-0.09490282833576202,0.1630408763885498,1.5707963705062866,-1.3400225639343262,0.6139694452285767,0.021362630650401115,14.973815330315576,-14.920665889072275,-7.056043369038254,29452.0
0.7798,0.0066,1,1,-0.3161061406135559,0.3057999014854431,0.25546687841415405,-0.33584246039390564,0.25176766514778137,0.19455642998218536,0.0008963932050392032,0.3900264799594879,0.59153151512146,0.9950061440467834,0.05992832034826279,-0.04597923159599304,0.06523340195417404,0.8875837875818432,-1.4219272197561212,0.00789277411226231,6.535690093713537,-5.699893047081188,7.176251588518914,0.08377999812364578,-0.01973631978034973,-0.05403223633766174,-0.06091044843196869,0.0008963932050392032,0.3900264799594879,0.59153151512146,0.05992832034826279,-0.04597923159599304,0.06523340195417404,0.9950061440467834,0.8875837922096252,-1.4219272136688232,0.007892774417996407,-0.01973631978034973,-0.05403223633766174,-0.06091044843196869,-0.03487342596054077,-0.049896836280822754,-0.035910457372665405,-0.05047106742858887,-0.04818031191825867,-0.010910451412200928,-0.06614521145820618,-0.048924922943115234,0.01408955454826355,-0.08150988817214966,-0.05211234092712402,0.03908956050872803,-0.09618678689002991,-0.05766408145427704,0.06408953666687012,-0.10981452465057373,-0.06544344127178192,0.0890895426273346,-0.12205749750137329,-0.07525888085365295,0.11408954858779907,-0.13261425495147705,-0.08686868846416473,0.13908955454826355,-0.14122489094734192,-0.09998701512813568,0.16408956050872803,1.5707963705062866,-1.3234566450119019,0.7100626230239868,0.021362630650401115,14.986907665157787,-14.960332944536137,-7.618537930880648,29452.0
0.8005,0.0093,1,1,-0.4084301292896271,0.24362795054912567,0.22619840502738953,-0.3388477861881256,0.25279486179351807,0.19961139559745789,-0.37351101636886597,0.11221151053905487,0.3696151673793793,0.9904323816299438,0.08394169807434082,-0.08615174144506454,0.06762672960758209,0.7569049363156632,-1.2739693132843164,0.09702669832350469,9.047394237347667,-10.486762647785437,6.980169721579516,0.07505067437887192,0.06958234310150146,0.009166911244392395,-0.02658700942993164,-0.37351101636886597,0.11221151053905487,0.3696151673793793,0.08394169807434082,-0.08615174144506454,0.06762672960758209,0.9904323816299438,0.7569049596786499,-1.273969292640686,0.09702669829130173,0.06958234310150146,0.009166911244392395,-0.02658700942993164,0.05432158708572388,0.012819543480873108,-0.001587003469467163,0.03867727518081665,0.014039888978004456,0.02341298758983612,0.02303469181060791,0.012797906994819641,0.04841300845146179,0.007778972387313843,0.00912417471408844,0.07341298460960388,-0.006714224815368652,0.0031091421842575073,0.09841299057006836,-0.020088016986846924,-0.005099058151245117,0.12341299653053284,-0.032013118267059326,-0.015298336744308472,0.14841300249099731,-0.0421958863735199,-0.027237534523010254,0.1734130084514618,-0.05038559436798096,-0.04062268137931824,0.19841298460960388,-1.5707963705062866,1.5707963705062866,0.9667352437973022,0.20000000298023224,-0.006546167421106475,0.019833527731931255,-8.010701664759448,33452.0
0.8203,0.0099,1,1,-0.4229775667190552,0.2460995763540268,0.22929151356220245,-0.3418336510658264,0.253711462020874,0.20458264648914337,-0.39758920669555664,0.08315770328044891,0.3152875006198883,0.9885736703872681,0.09202504903078079,-0.0976305827498436,0.06870096176862717,0.5902063652529709,-0.995663653048856,0.09716058042493002,9.916589651949764,-11.868984478003698,6.917376797330705,0.08516339957714081,0.08114391565322876,0.007611885666847229,-0.024708867073059082,-0.39758920669555664,0.08315770328044891,0.3152875006198883,0.09202504903078079,-0.0976305827498436,0.06870096176862717,0.9885736703872681,0.5902063846588135,-0.9956636428833008,0.09716057777404785,0.08114391565322876,0.007611885666847229,-0.024708867073059082,0.06577649712562561,0.010786131024360657,0.0002911388874053955,0.05010172724723816,0.011517331004142761,0.02529112994670868,0.03450554609298706,0.009787425398826599,0.05029113590717316,0.019372016191482544,0.005639031529426575,0.07529114186763763,0.005073726177215576,-0.0008256733417510986,0.10029114782810211,-0.008037209510803223,-0.009447544813156128,0.1252911239862442,-0.01963794231414795,-0.020014256238937378,0.15029112994670868,-0.02944287657737732,-0.03226564824581146,0.17529113590717316,-0.03721058368682861,-0.04590003192424774,0.20029114186763763,-1.5707963705062866,1.5707963705062866,0.9960728883743286,0.20000000298023224,-7.503273083710553,7.509916763865966,-8.136287513257052,37452.0
0.8403,0.0098,1,1,-0.42567548155784607,0.24635739624500275,0.243241548538208,-0.34488916397094727,0.25454527139663696,0.20962367951869965,-0.4121473431587219,0.04858306050300598,0.3277544677257538,0.9874887466430664,0.09597402811050415,-0.10325682908296585,0.0706472396850586,0.013209637909361801,-0.21974784116020288,0.15990321593573253,10.32594313729086,-12.561681420563541,7.04463527233947,0.08788419514894485,0.0807863175868988,0.008187875151634216,-0.03361786901950836,-0.4121473431587219,0.04858306050300598,0.3277544677257538,0.09597402811050415,-0.10325682908296585,0.0706472396850586,0.9874887466430664,0.013209638185799122,-0.21974784135818481,0.15990321338176727,0.0807863175868988,0.008187875151634216,-0.03361786901950836,0.06532609462738037,0.010873869061470032,-0.008617877960205078,0.049636006355285645,0.011108294129371643,0.0163821280002594,0.034102439880371094,0.00888533890247345,0.04138213396072388,0.0191078782081604,0.004259780049324036,0.06638213992118835,0.005021482706069946,-0.0026544928550720215,0.09138211607933044,-0.007809817790985107,-0.011687234044075012,0.11638212203979492,-0.01907011866569519,-0.022616028785705566,0.1413821280002594,-0.028482168912887573,-0.03517177700996399,0.16638213396072388,-0.03581416606903076,-0.04904530942440033,0.19138213992118835,-1.5707963705062866,1.5707963705062866,0.979059100151062,0.20000000298023224,-11.251636541855277,11.254958381932983,-7.881770563239538,41452.0
0.8598,0.0094,1,1,-0.43380007147789,0.24769353866577148,0.24962188303470612,-0.34789565205574036,0.25526541471481323,0.21454420685768127,-0.43701595067977905,0.0351155661046505,0.2918365001678467,0.9881227612495422,0.09100941568613052,-0.10057871788740158,0.0721987932920456,-1.1167715028314544,1.0542488028148005,0.19189603642696343,9.739898865501221,-12.234293803494987,7.311611898463058,0.09309858083724976,0.08590441942214966,0.007571876049041748,-0.03507767617702484,-0.43701595067977905,0.0351155661046505,0.2918365001678467,0.09100941568613052,-0.10057871788740158,0.0721987932920456,0.9881227612495422,-1.1167714595794678,1.0542488098144531,0.19189603626728058,0.08590441942214966,0.007571876049041748,-0.03507767617702484,0.07036855816841125,0.00977867841720581,-0.010077685117721558,0.05467873811721802,0.009527981281280518,0.014922305941581726,0.03922131657600403,0.006825923919677734,0.039922311902046204,0.024376869201660156,0.0017390847206115723,0.06492231786251068,0.010510951280593872,-0.005607321858406067,0.08992232382297516,-0.0020350217819213867,-0.015032395720481873,0.11492232978343964,-0.01295211911201477,-0.026304036378860474,0.13992230594158173,-0.021971523761749268,-0.03914472460746765,0.1649223119020462,-0.02887117862701416,-0.05323827266693115,0.18992231786251068,-1.5707963705062866,1.5707963705062866,1.1270257234573364,0.20000000298023224,-13.125818270927638,13.127479190966492,-7.347817310992341,44230.0
0.8805,0.0099,1,1,-0.4387121796607971,0.251224160194397,0.27869099378585815,-0.3510189354419708,0.2559105455875397,0.21962019801139832,-0.4512295424938202,0.008262481540441513,0.41496238112449646,0.991338312625885,0.07112766802310944,-0.0824882984161377,0.07336755841970444,-2.295694394444579,2.5223685516783463,0.07670270956315933,7.522523069402904,-10.019570489708142,7.804936525819216,0.10583679378032684,0.0876932442188263,0.0046863853931427,-0.05907079577445984,-0.4512295424938202,0.008262481540441513,0.41496238112449646,0.07112766802310944,-0.0824882984161377,0.07336755841970444,0.991338312625885,-2.295694351196289,2.5223686695098877,0.07670270651578903,0.0876932442188263,0.0046863853931427,-0.05907079577445984,0.07209491729736328,0.006396681070327759,-0.03407078981399536,0.05642107129096985,0.005645781755447388,-0.009070783853530884,0.04105767607688904,0.0024521946907043457,0.015929192304611206,0.02638298273086548,-0.0031054168939590454,0.040929198265075684,0.012758404016494751,-0.01089024543762207,0.06592920422554016,0.0005193650722503662,-0.02071058750152588,0.09092921018600464,-0.0100327730178833,-0.03232462704181671,0.11592921614646912,-0.018638134002685547,-0.04544639587402344,0.1409291923046112,-0.025084853172302246,-0.05975279211997986,0.16592919826507568,-0.9046841859817505,1.5707963705062866,1.203773856163025,0.03273743763566017,-14.06290913546382,14.063739595483245,-6.361168056280041,40230.0
0.9004,0.0098,1,1,-0.4468700587749481,0.25204598903656006,0.2874882221221924,-0.35411813855171204,0.25644901394844055,0.22462685406208038,-0.46620669960975647,-0.010011112317442894,0.4047505855560303,0.994777500629425,0.04275096580386162,-0.056006114929914474,0.07383301109075546,-2.7662885411831395,2.8104000762147763,0.06837729764973254,4.434709515176167,-6.761695848218482,8.227360244150052,0.1121332123875618,0.09275192022323608,0.004403024911880493,-0.062861368060112,-0.46620669960975647,-0.010011112317442894,0.4047505855560303,0.04275096580386162,-0.056006114929914474,0.07383301109075546,0.994777500629425,-2.7662885189056396,2.8104000091552734,0.0683773010969162,0.09275192022323608,0.004403024911880493,-0.062861368060112,0.0771074891090393,0.005621850490570068,-0.037861377000808716,0.06146502494812012,0.0043783485889434814,-0.012861371040344238,0.0462096631526947,0.0007031261920928955,0.01213863492012024,0.03171706199645996,-0.005313307046890259,0.03713864088058472,0.01834404468536377,-0.013522818684577942,0.06213861703872681,0.006419956684112549,-0.023723244667053223,0.08713862299919128,-0.0037616491317749023,-0.0356634259223938,0.11213862895965576,-0.011950075626373291,-0.049049362540245056,0.13713863492012024,-0.017943620681762695,-0.06355145573616028,0.16213864088058472,-0.27148115634918213,1.5707963705062866,1.27003014087677,0.025604262948036194,-14.53145456773191,14.531869797741622,-5.516320619618377,36230.0
0.9199,0.0097,1,1,-0.4418085813522339,0.2594083547592163,0.29530295729637146,-0.35720130801200867,0.25688573718070984,0.2295830249786377,-0.40547463297843933,0.01711815409362316,0.38417351245880127,0.9969257712364197,0.012175916694104671,-0.024280747398734093,0.07347925007343292,-2.5230849420115775,2.7806887858294163,0.07160237324625089,1.1881046852361536,-2.8775470474360008,8.400962953469191,0.10716278851032257,0.08460727334022522,-0.0025226175785064697,-0.06571993231773376,-0.40547463297843933,0.01711815409362316,0.38417351245880127,0.012175916694104671,-0.024280747398734093,0.07347925007343292,0.9969257712364197,-2.523084878921509,2.780688762664795,0.07160237431526184,0.08460727334022522,-0.0025226175785064697,-0.06571993231773376,0.06893250346183777,-0.0017914772033691406,-0.04071992635726929,0.05333635210990906,-0.0035214126110076904,-0.01571992039680481,0.03820279240608215,-0.007669806480407715,0.00928005576133728,0.02390456199645996,-0.014134570956230164,0.03428006172180176,0.010793626308441162,-0.02275647222995758,0.059280067682266235,-0.0008071064949035645,-0.03332321345806122,0.08428007364273071,-0.010612010955810547,-0.0455746203660965,0.10928007960319519,-0.018379658460617065,-0.05920901894569397,0.13428005576133728,-0.02391877770423889,-0.07389068603515625,0.15928006172180176,1.0329090356826782,1.5707963705062866,1.227699875831604,0.021362630650401115,0.2342727161340452,14.76593489887081,-5.169115200980086,32230.0
0.9401,0.0074,1,1,-0.4456493854522705,0.2629830837249756,0.29328522086143494,-0.3603225350379944,0.2572287321090698,0.23458072543144226,-0.3810405433177948,0.035234637558460236,0.3197256922721863,0.9971868395805359,-0.014567870646715164,0.0013922523939982057,0.07349944859743118,-2.126720418546523,2.1884492968212514,0.08555049636321595,-1.653182084422169,0.2817893684032844,8.426848311381237,0.10373042523860931,0.08532685041427612,-0.005754351615905762,-0.058704495429992676,-0.3810405433177948,0.035234637558460236,0.3197256922721863,-0.014567870646715164,0.0013922523939982057,0.07349944859743118,0.9971868395805359,-2.126720428466797,2.1884493827819824,0.08555049449205399,0.08532685041427612,-0.005754351615905762,-0.058704495429992676,0.06963685154914856,-0.005515694618225098,-0.0337044894695282,0.054102689027786255,-0.007734447717666626,-0.00870448350906372,0.03910684585571289,-0.012355953454971313,0.01629549264907837,0.025018632411956787,-0.01926642656326294,0.04129549860954285,0.012184858322143555,-0.028295710682868958,0.06629550457000732,0.0009216070175170898,-0.03922146558761597,0.0912955105304718,-0.008493810892105103,-0.05177466571331024,0.11629551649093628,-0.01582956314086914,-0.065646231174469,0.14129549264907837,-0.020905017852783203,-0.08049455285072327,0.16629549860954285,1.5707963705062866,1.5707963705062866,1.2997568845748901,0.07606066763401031,7.617136358067023,14.882967449435405,-5.117344485155978,30279.0
0.96,0.0054,1,1,-0.4530857801437378,0.267162561416626,0.29921653866767883,-0.3634602129459381,0.25747400522232056,0.23958994448184967,-0.34647732973098755,0.06749654561281204,0.2939569056034088,0.9963920712471008,-0.03492605313658714,0.022020932286977768,0.07413586229085922,-1.0765658264335556,1.5979348704091856,0.10500005282439061,-3.80810130574526,2.81214642981543,8.416901023899095,0.10808302462100983,0.08962556719779968,-0.00968855619430542,-0.05962659418582916,-0.34647732973098755,0.06749654561281204,0.2939569056034088,-0.03492605313658714,0.022020932286977768,0.07413586229085922,0.9963920712471008,-1.0765658617019653,1.5979348421096802,0.10500005632638931,0.08962556719779968,-0.00968855619430542,-0.05962659418582916,0.07393583655357361,-0.009943753480911255,-0.03462660312652588,0.05847916007041931,-0.012650251388549805,-0.009626597166061401,0.043636202812194824,-0.0177413672208786,0.015373408794403076,0.029772400856018066,-0.025091752409934998,0.040373414754867554,0.017229139804840088,-0.034520432353019714,0.06537342071533203,0.006315290927886963,-0.04579521715641022,0.09037339687347412,-0.0027004480361938477,-0.058638498187065125,0.1153734028339386,-0.009596049785614014,-0.07273402810096741,0.14037340879440308,-0.014201730489730835,-0.08773472905158997,0.16537341475486755,1.5707963705062866,1.5707963705062866,1.2603157758712769,0.08681434392929077,11.30856817903351,14.941483724717703,-5.137239060120304,33320.0
0.9796,0.0055,1,1,-0.4732174873352051,0.25824859738349915,0.299413800239563,-0.3665754199028015,0.2576195299625397,0.2445535510778427,-0.398881733417511,0.03779289126396179,0.2602352499961853,0.9961237907409668,-0.03845686465501785,0.02576310560107231,0.0747842937707901,0.24542434262555196,1.235840037009325,0.09559192860860291,-4.179482895623091,3.2721311631564056,8.467440182907929,0.11992736905813217,0.10664206743240356,-0.0006290674209594727,-0.054860249161720276,-0.398881733417511,0.03779289126396179,0.2602352499961853,-0.03845686465501785,0.02576310560107231,0.0747842937707901,0.9961237907409668,0.24542434513568878,1.235840082168579,0.09559192508459091,0.10664206743240356,-0.0006290674209594727,-0.054860249161720276,0.09096792340278625,-0.001373380422592163,-0.029860258102416992,0.075603187084198,-0.004560530185699463,-0.004860252141952515,0.0609261691570282,-0.010112002491950989,0.020139753818511963,0.047298312187194824,-0.01789112389087677,0.04513975977897644,0.03505516052246094,-0.027706339955329895,0.07013973593711853,0.024498194456100464,-0.03931596875190735,0.09513974189758301,0.015887320041656494,-0.052434131503105164,0.12013974785804749,0.009434610605239868,-0.0667378157377243,0.14513975381851196,0.00529894232749939,-0.08187483251094818,0.17013975977897644,1.197194218635559,1.5707963705062866,1.1517020463943481,0.15345622599124908,13.154284089516755,14.970741862358851,-5.036160742102615,37320.0
0.9997,0.0057,1,1,-0.4873908460140228,0.25995463132858276,0.30229073762893677,-0.3697180151939392,0.2576678693294525,0.24955594539642334,-0.35942935943603516,0.06121502071619034,0.22769632935523987,0.9954565763473511,-0.03504645824432373,0.04680974408984184,0.07513213157653809,1.4530684944887993,0.9963102019824999,0.16106413778916853,-3.614722743111907,5.650518362036028,8.453973380876972,0.12896931171417236,0.11767283082008362,-0.002286761999130249,-0.05273479223251343,-0.35942935943603516,0.06121502071619034,0.22769632935523987,-0.03504645824432373,0.04680974408984184,0.07513213157653809,0.9954565763473511,1.453068494796753,0.9963101744651794,0.16106413304805756,0.11767283082008362,-0.002286761999130249,-0.05273479223251343,0.10202980041503906,-0.003523319959640503,-0.02773478627204895,0.08677282929420471,-0.007191717624664307,-0.0027347803115844727,0.07227751612663269,-0.013201698660850525,0.022265225648880005,0.0589008629322052,-0.02140524983406067,0.047265201807022095,0.04697221517562866,-0.03160037100315094,0.07226520776748657,0.036785274744033813,-0.043536022305488586,0.09726521372795105,0.028590917587280273,-0.05691830813884735,0.12226521968841553,0.02259090542793274,-0.07141771912574768,0.14726522564888,0.018932968378067017,-0.08667722344398499,0.1722652018070221,0.7785667181015015,1.5707963705062866,0.9130915403366089,0.18536630272865295,14.077142044758379,14.985370931179425,-5.063094346164509,41320.0
1.0204,0.0082,1,1,-0.487224817276001,0.2608773410320282,0.3134627938270569,-0.3728519678115845,0.25761765241622925,0.25454461574554443,-0.3428992033004761,0.06129496172070503,0.2214750051498413,0.9952326416969299,-0.018781404942274094,0.05915166065096855,0.07522176206111908,1.9420909170223815,1.1303472993832697,0.13426638724824724,-1.6442742748316461,6.92470381094393,8.545124959571195,0.12869779765605927,0.1143728494644165,-0.00325968861579895,-0.05891817808151245,-0.3428992033004761,0.06129496172070503,0.2214750051498413,-0.018781404942274094,0.05915166065096855,0.07522176206111908,0.9952326416969299,1.9420908689498901,1.1303472518920898,0.13426639139652252,0.1143728494644165,-0.00325968861579895,-0.05891817808151245,0.09877628087997437,-0.00498586893081665,-0.033918172121047974,0.08364173769950867,-0.009130626916885376,-0.008918166160583496,0.06934192776679993,-0.015591919422149658,0.01608183979988098,0.05622893571853638,-0.02421066164970398,0.04108181595802307,0.04462563991546631,-0.034774601459503174,0.06608182191848755,0.034817785024642944,-0.047023653984069824,0.09108182787895203,0.02704682946205139,-0.06065617501735687,0.1160818338394165,0.02150416374206543,-0.0753365010023117,0.14108183979988098,0.018326252698898315,-0.09070314466953278,0.16608181595802307,0.14902758598327637,1.5707963705062866,0.7546159029006958,0.16250501573085785,11.307896876311549,14.992685465589712,-4.880791188776098,44230.0
1.0402,0.0084,1,1,-0.4937155246734619,0.26204895973205566,0.31783559918403625,-0.37601518630981445,0.25746721029281616,0.2595849633216858,-0.31510820984840393,0.06392562389373779,0.20863625407218933,0.9945414066314697,0.0009030484361574054,0.07223569601774216,0.07527656853199005,1.9974194202493225,1.1096267076799626,0.16100055481814288,0.733644085251373,8.253138072220915,8.709810983359924,0.13140586018562317,0.11770033836364746,-0.004581749439239502,-0.058250635862350464,-0.31510820984840393,0.06392562389373779,0.20863625407218933,0.0009030484361574054,0.07223569601774216,0.07527656853199005,0.9945414066314697,1.9974194765090942,1.1096266508102417,0.1610005497932434,0.11770033836364746,-0.004581749439239502,-0.058250635862350464,0.10216623544692993,-0.00680088996887207,-0.033250659704208374,0.0871705412864685,-0.011422812938690186,-0.008250653743743896,0.07308247685432434,-0.018333658576011658,0.01674935221672058,0.0602489709854126,-0.02736327052116394,0.04174935817718506,0.04898598790168762,-0.03828933835029602,0.06674936413764954,0.039570897817611694,-0.05084279179573059,0.09174934029579163,0.032235532999038696,-0.06471453607082367,0.1167493462562561,0.027160465717315674,-0.07956300675868988,0.14174935221672058,0.02447071671485901,-0.09502257406711578,0.16674935817718506,-0.19252657890319824,1.5707963705062866,0.6803611516952515,0.17428983747959137,0.13846823053292923,14.996342732794856,-4.551419141198623,44230.0
1.0602,0.008,1,1,-0.4954085052013397,0.2663605213165283,0.3502598702907562,-0.3791709840297699,0.25721681118011475,0.26462358236312866,-0.2665408253669739,0.07042354345321655,0.4356335997581482,0.9932696223258972,0.018574727699160576,0.08596748113632202,0.07535284757614136,1.5364688461340477,0.9908386043648776,0.13215266958056496,2.8989040501421446,9.670303071024964,8.921943493428978,0.14466631412506104,0.11623752117156982,-0.009143710136413574,-0.08563628792762756,-0.2665408253669739,0.07042354345321655,0.4356335997581482,0.018574727699160576,0.08596748113632202,0.07535284757614136,0.9932696223258972,1.5364688634872437,0.9908385872840881,0.13215267658233643,0.11623752117156982,-0.009143710136413574,-0.08563628792762756,0.10078144073486328,-0.01185348629951477,-0.060636281967163086,0.08593955636024475,-0.016947731375694275,-0.035636305809020996,0.07207730412483215,-0.02430105209350586,-0.010636299848556519,0.05953603982925415,-0.03373236954212189,0.014363706111907959,0.04862454533576965,-0.045009464025497437,0.039363712072372437,0.03961154818534851,-0.057854652404785156,0.06436371803283691,0.032718926668167114,-0.07195162773132324,0.089363694190979,0.02811640501022339,-0.0869533121585846,0.11436370015144348,0.025917351245880127,-0.10249027609825134,0.13936370611190796,-0.13975203037261963,1.5707963705062866,0.5246139764785767,0.021362630650401115,-3.934366644101135,14.998171366397429,-4.127154121060502,40230.0
1.0799,0.0082,1,1,-0.4968171715736389,0.2685767412185669,0.3430716395378113,-0.3822719156742096,0.25687238574028015,0.2695893943309784,-0.20373548567295074,0.0657111257314682,0.294290691614151,0.9917885065078735,0.0305083766579628,0.09830039739608765,0.07589354366064072,0.5876095168740346,0.8541114479470188,0.13966850132855368,4.407036751367861,10.973539139836799,9.175220892149571,0.13659153878688812,0.11454525589942932,-0.011704355478286743,-0.07348224520683289,-0.20373548567295074,0.0657111257314682,0.294290691614151,0.0305083766579628,0.09830039739608765,0.07589354366064072,0.9917885065078735,0.5876095294952393,0.8541114330291748,0.13966849446296692,0.11454525589942932,-0.011704355478286743,-0.07348224520683289,0.09918123483657837,-0.014894962310791016,-0.04848223924636841,0.08450549840927124,-0.02044975757598877,-0.02348223328590393,0.07087936997413635,-0.028231948614120483,0.0015177726745605469,0.05863845348358154,-0.038049906492233276,0.026517748832702637,0.0480840802192688,-0.04966190457344055,0.051517754793167114,0.03947615623474121,-0.06278201937675476,0.07651776075363159,0.033026665449142456,-0.0770871639251709,0.10151776671409607,0.028894394636154175,-0.0922251045703888,0.12651777267456055,0.02718108892440796,-0.10782311856746674,0.15151774883270264,0.5989199876785278,1.5707963705062866,0.7301417589187622,0.021362630650401115,5.532816677949433,14.999085683198714,-3.620599323619333,36230.0
1.0998,0.009,1,1,-0.4890029728412628,0.27794238924980164,0.36416390538215637,-0.3853716254234314,0.25642964243888855,0.2745729982852936,-0.09815573692321777,0.09206458926200867,0.38723623752593994,0.990532398223877,0.029227646067738533,0.10938272625207901,0.07761996239423752,-0.639446615911882,0.573773596062746,0.17746676332480513,4.394699747229508,12.248786263508382,9.433058107974492,0.13866789638996124,0.10363134741783142,-0.021512746810913086,-0.08959090709686279,-0.09815573692321777,0.09206458926200867,0.38723623752593994,0.029227646067738533,0.10938272625207901,0.07761996239423752,0.990532398223877,-0.6394466161727905,0.5737736225128174,0.1774667650461197,0.10363134741783142,-0.021512746810913086,-0.08959090709686279,0.08837476372718811,-0.0251828134059906,-0.06459090113639832,0.07388010621070862,-0.031194329261779785,-0.03959089517593384,0.06050431728363037,-0.03939931094646454,-0.014590919017791748,0.04857677221298218,-0.04959569871425629,0.01040908694267273,0.03839111328125,-0.061532437801361084,0.03540909290313721,0.03019818663597107,-0.07491560280323029,0.060409098863601685,0.024199724197387695,-0.08941566944122314,0.08540910482406616,0.020543426275253296,-0.10467556118965149,0.11040908098220825,0.01931929588317871,-0.12031956017017365,0.13540908694267273,1.5707963705062866,1.5707963705062866,0.6299718618392944,0.021362630650401115,10.266408338974717,14.999542841599357,-3.1049248919695023,32230.0
1.1201,0.0093,1,1,-0.48999011516571045,0.28145843744277954,0.36253219842910767,-0.3885026276111603,0.255881130695343,0.2796322703361511,-0.04986181855201721,0.09733355045318604,0.32547441124916077,0.9899945259094238,0.01966642588376999,0.11453891545534134,0.080018550157547,-0.889839951078331,0.5072012267134902,0.13860700692994013,3.3685255820698363,12.922826502985929,9.623619204326923,0.13351519405841827,0.10148748755455017,-0.025577306747436523,-0.08289992809295654,-0.04986181855201721,0.09733355045318604,0.32547441124916077,0.01966642588376999,0.11453891545534134,0.080018550157547,0.9899945259094238,-0.8898399472236633,0.5072012543678284,0.13860701024532318,0.10148748755455017,-0.025577306747436523,-0.08289992809295654,0.08635523915290833,-0.029730409383773804,-0.057899922132492065,0.07205897569656372,-0.03619956970214844,-0.03289991617202759,0.058950722217559814,-0.04482552409172058,-0.00789991021156311,0.047353267669677734,-0.05539587140083313,0.01710006594657898,0.03755214810371399,-0.06765030324459076,0.04210007190704346,0.029788732528686523,-0.08128711581230164,0.06710007786750793,0.024254143238067627,-0.09597048163414001,0.09210008382797241,0.02108466625213623,-0.11133888363838196,0.11710008978843689,0.020358383655548096,-0.1270138919353485,0.14210009574890137,1.5707963705062866,1.5707963705062866,0.7330881357192993,0.021362630650401115,12.633204169487358,14.999771420799679,-2.723802699264645,29452.0
1.14,0.0093,1,1,-0.4905223250389099,0.28334829211235046,0.36906883120536804,-0.3915656507015228,0.2552444040775299,0.28461164236068726,-0.003313361667096615,0.09227524697780609,0.3275163173675537,0.9907351732254028,0.012765660881996155,0.10831471532583237,0.08091209828853607,-0.0754784710548067,0.3462122400013324,0.15126170760685936,2.5117437801913494,12.272217970561108,9.6078785060582,0.13309872150421143,0.09895667433738708,-0.028103888034820557,-0.08445718884468079,-0.003313361667096615,0.09227524697780609,0.3275163173675537,0.012765660881996155,0.10831471532583237,0.08091209828853607,0.9907351732254028,-0.07547847181558609,0.346212238073349,0.15126170217990875,0.09895667433738708,-0.028103888034820557,-0.08445718884468079,0.08396172523498535,-0.03272831439971924,-0.05945718288421631,0.0698748528957367,-0.03964152932167053,-0.03445717692375183,0.057042837142944336,-0.04867331683635712,-0.009457170963287354,0.0457817018032074,-0.05960126221179962,0.015542805194854736,0.036368727684020996,-0.07215629518032074,0.040542811155319214,0.02903565764427185,-0.08602927625179291,0.06554281711578369,0.023963093757629395,-0.10087859630584717,0.09054282307624817,0.02127593755722046,-0.11633861064910889,0.11554282903671265,0.021040350198745728,-0.13202866911888123,0.14054283499717712,1.5707963705062866,1.016074776649475,0.5921856164932251,0.021362630650401115,13.816602084743678,14.99988571039984,-2.7552840958020828,29452.0
1.1596,0.0092,1,1,-0.5216514468193054,0.2709861397743225,0.3686911165714264,-0.3945833146572113,0.2545183002948761,0.28955167531967163,-0.1023179143667221,0.03132311627268791,0.25132620334625244,0.9900665283203125,0.016783060505986214,0.11265403777360916,0.08242393285036087,0.7668194190008375,0.1759284715449049,0.18369564744314826,3.044311859991364,12.726849787295912,9.857469845231865,0.1506006270647049,0.12706813216209412,-0.01646783947944641,-0.07913944125175476,-0.1023179143667221,0.03132311627268791,0.25132620334625244,0.016783060505986214,0.11265403777360916,0.08242393285036087,0.9900665283203125,0.766819417476654,0.17592847347259521,0.18369564414024353,0.12706813216209412,-0.01646783947944641,-0.07913944125175476,0.11222392320632935,-0.021555379033088684,-0.05413943529129028,0.09835836291313171,-0.028902441263198853,-0.029139429330825806,0.08581283688545227,-0.03832809627056122,-0.004139453172683716,0.07489627599716187,-0.049600258469581604,0.02086055278778076,0.06587746739387512,-0.06244136393070221,0.04586055874824524,0.05897846817970276,-0.07653523981571198,0.07086056470870972,0.054369181394577026,-0.091534823179245,0.0958605706691742,0.05216309428215027,-0.10707080364227295,0.12086054682731628,0.052414536476135254,-0.12276060879230499,0.14586058259010315,1.0109657049179077,1.5707963705062866,0.6561967134475708,0.021362630650401115,14.40830104237184,14.999942855199919,-2.256101417454763,29452.0
1.1798,0.0092,1,1,-0.5264361500740051,0.27125269174575806,0.36614587903022766,-0.3976404070854187,0.2536804676055908,0.294596791267395,-0.05848175659775734,0.02675318531692028,0.21486343443393707,0.9895084500312805,0.026244815438985825,0.1155882254242897,0.08259306848049164,1.2680951788679287,0.18967228027199046,0.17901504195879311,4.180095315909997,12.968525836626155,10.017986300906744,0.14837923645973206,0.12879574298858643,-0.017572224140167236,-0.07154908776283264,-0.05848175659775734,0.02675318531692028,0.21486343443393707,0.026244815438985825,0.1155882254242897,0.08259306848049164,0.9895084500312805,1.2680951356887817,0.18967227637767792,0.17901504039764404,0.12879574298858643,-0.017572224140167236,-0.07154908776283264,0.11412027478218079,-0.023127689957618713,-0.046549081802368164,0.10049450397491455,-0.03091050684452057,-0.021549075841903687,0.08825403451919556,-0.04072904586791992,0.003450930118560791,0.07770019769668579,-0.052341535687446594,0.02845090627670288,0.06909289956092834,-0.06546203792095184,0.05345091223716736,0.0626440942287445,-0.07976748049259186,0.07845091819763184,0.05851250886917114,-0.09490562975406647,0.10345092415809631,0.05679994821548462,-0.11050371825695038,0.1284509301185608,0.05754852294921875,-0.12617766857147217,0.15345093607902527,0.6084738969802856,1.5707963705062866,0.553587794303894,0.07771509885787964,14.70415052118592,14.99997142759996,-1.9350685061049961,30758.0
1.1997,0.0091,1,1,-0.5211513638496399,0.2758305072784424,0.3851248323917389,-0.40061670541763306,0.2527633309364319,0.2995537221431732,-0.0037716045044362545,0.02828308939933777,0.2286231964826584,0.9885125160217285,0.039524879306554794,0.1199626475572586,0.08299271017313004,1.4453886036952832,0.36127621097028384,0.1482748559310378,5.7835020085584725,13.332905412424887,10.27479409184948,0.14960987865924835,0.12053465843200684,-0.023067176342010498,-0.08557111024856567,-0.0037716045044362545,0.02828308939933777,0.2286231964826584,0.039524879306554794,0.1199626475572586,0.08299271017313004,0.9885125160217285,1.4453885555267334,0.36127620935440063,0.14827485382556915,0.12053465843200684,-0.023067176342010498,-0.08557111024856567,0.10603928565979004,-0.029076948761940002,-0.060571104288101196,0.092662513256073,-0.037280306220054626,-0.03557109832763672,0.08073371648788452,-0.04747524857521057,-0.010571122169494629,0.07054662704467773,-0.05941076576709747,0.014428883790969849,0.06235209107398987,-0.07279293239116669,0.039428889751434326,0.05635184049606323,-0.08729226887226105,0.0644288957118988,0.052693694829940796,-0.10255171358585358,0.08942890167236328,0.051467686891555786,-0.1181955635547638,0.11442887783050537,0.05270400643348694,-0.13383860886096954,0.13942888379096985,0.5532454252243042,1.5707963705062866,0.3599214553833008,0.021362630650401115,14.85207526059296,14.99998571379998,-1.421452924219527,29452.0
1.2198,0.0097,1,1,-0.5207651853561401,0.27771759033203125,0.38581371307373047,-0.40360644459724426,0.2517382800579071,0.30458417534828186,0.03547431528568268,0.023236026987433434,0.1742667257785797,0.9873399138450623,0.05283380672335625,0.12431635707616806,0.08313815295696259,1.318351425482705,0.25961890801189025,0.20091193527083132,7.3919804727840095,13.691852715547364,10.515028104740788,0.14491146802902222,0.11715874075889587,-0.025979310274124146,-0.08122953772544861,0.03547431528568268,0.023236026987433434,0.1742667257785797,0.05283380672335625,0.12431635707616806,0.08313815295696259,0.9873399138450623,1.3183513879776,0.2596189081668854,0.20091193914413452,0.11715874075889587,-0.025979310274124146,-0.08122953772544861,0.10286051034927368,-0.032444149255752563,-0.05622953176498413,0.08974966406822205,-0.041066139936447144,-0.031229525804519653,0.07814902067184448,-0.051632970571517944,-0.0062295496463775635,0.06834417581558228,-0.06388445198535919,0.018770456314086914,0.06057664752006531,-0.07751891016960144,0.04377046227455139,0.055037617683410645,-0.09220060706138611,0.06877046823501587,0.051863521337509155,-0.10756805539131165,0.09377047419548035,0.05113250017166138,-0.12324284017086029,0.11877048015594482,0.05286252498626709,-0.138838991522789,0.14377045631408691,0.5701373815536499,1.219976782798767,0.29860246181488037,0.04171435534954071,14.92603763029648,14.99999285689999,-0.9409848984368936,29452.0
1.2397,0.0094,1,1,-0.5085895657539368,0.2867577075958252,0.4135870337486267,-0.40652284026145935,0.25063493847846985,0.3095470070838928,0.1293257474899292,0.03755941241979599,0.23933260142803192,0.9858710169792175,0.06232140585780144,0.13097454607486725,0.08377416431903839,0.9548695512081039,0.20806698359251996,0.18789533596890554,8.597310429925255,14.347730545144618,10.798150009020432,0.1501559168100357,0.10206672549247742,-0.03612276911735535,-0.10404002666473389,0.1293257474899292,0.03755941241979599,0.23933260142803192,0.06232140585780144,0.13097454607486725,0.08377416431903839,0.9858710169792175,0.9548695683479309,0.20806698501110077,0.18789534270763397,0.10206672549247742,-0.03612276911735535,-0.10404002666473389,0.08797702193260193,-0.0430302619934082,-0.07904002070426941,0.07514137029647827,-0.05205681920051575,-0.05404004454612732,0.06387579441070557,-0.06298018991947174,-0.029040038585662842,0.05445772409439087,-0.07553140819072723,-0.004040032625198364,0.04711902141571045,-0.08940139412879944,0.020959973335266113,0.04204043745994568,-0.10424865782260895,0.04595997929573059,0.03934699296951294,-0.11970758438110352,0.07095995545387268,0.039104998111724854,-0.1353975385427475,0.09595996141433716,0.041320472955703735,-0.150932177901268,0.12095993757247925,1.406666874885559,-1.0008615255355835,0.09377920627593994,0.021362630650401115,14.96301881514824,-3.571550005077029e-06,-0.37474108987761123,29452.0
1.2606,0.0064,1,1,-0.5055621862411499,0.2890046536922455,0.408936470746994,-0.4094485342502594,0.24942165613174438,0.31458812952041626,0.16998852789402008,0.03410208970308304,0.14028063416481018,0.9848014116287231,0.07003241777420044,0.13454420864582062,0.08460202068090439,0.6454636954997798,0.2218292014206407,0.14272144933367964,9.561850813971352,14.663925542823721,11.053307804087925,0.14037898182868958,0.0961136519908905,-0.0395829975605011,-0.09434834122657776,0.16998852789402008,0.03410208970308304,0.14028063416481018,0.07003241777420044,0.13454420864582062,0.08460202068090439,0.9848014116287231,0.6454637050628662,0.22182920575141907,0.14272144436836243,0.0961136519908905,-0.0395829975605011,-0.09434834122657776,0.08224979043006897,-0.04693323373794556,-0.06934833526611328,0.06970641016960144,-0.056361764669418335,-0.04434835910797119,0.05879241228103638,-0.06763643026351929,-0.019348353147506714,0.049776554107666016,-0.08047960698604584,0.005651652812957764,0.04288077354431152,-0.09457504749298096,0.03065165877342224,0.038274943828582764,-0.10957570374011993,0.05565166473388672,0.03607240319252014,-0.12511217594146729,0.08065164089202881,0.03632745146751404,-0.14080192148685455,0.10565164685249329,0.03903377056121826,-0.15625859797000885,0.13065168261528015,1.5707963705062866,-1.5707963705062866,0.14477670192718506,0.021362630650401115,14.98150940757412,-7.5000017857750025,0.13557450025738182,29452.0
1.2795,0.0089,1,1,-0.4857053756713867,0.3015170395374298,0.43326717615127563,-0.4122733771800995,0.24814502894878387,0.31952202320098877,0.3015781342983246,0.0714443251490593,0.192789688706398,0.9837687611579895,0.07271760702133179,0.13985171914100647,0.08573596179485321,0.4996522302875516,-0.4641278584537939,0.18507260159526012,9.970201817074088,15.230003140270407,11.2978064547948,0.1455293446779251,0.07343199849128723,-0.053372010588645935,-0.11374515295028687,0.3015781342983246,0.0714443251490593,0.192789688706398,0.07271760702133179,0.13985171914100647,0.08573596179485321,0.9837687611579895,0.499652236700058,-0.46412786841392517,0.18507260084152222,0.07343199849128723,-0.053372010588645935,-0.11374515295028687,0.0598025918006897,-0.06114843487739563,-0.08874514698982239,0.04755750298500061,-0.07096122205257416,-0.06374514102935791,0.036998212337493896,-0.08256874978542328,-0.03874516487121582,0.028384745121002197,-0.095685213804245,-0.013745158910751343,0.02192920446395874,-0.10998763144016266,0.011254847049713135,0.017790526151657104,-0.12512382864952087,0.03625485301017761,0.016070634126663208,-0.14072109758853912,0.06125485897064209,0.016811847686767578,-0.15639540553092957,0.08625483512878418,0.019995957612991333,-0.17176078259944916,0.11125487089157104,1.5707963705062866,-1.5707963705062866,-0.021895885467529297,0.021362630650401115,14.99075470378706,-11.2500008928875,0.6245718016711177,29452.0
1.3,0.0096,1,1,-0.47973567247390747,0.3050287365913391,0.42731454968452454,-0.41512197256088257,0.24674850702285767,0.324571430683136,0.33772027492523193,0.08130230009555817,0.08291633427143097,0.9845554232597351,0.0766291618347168,0.13175071775913239,0.08613013476133347,0.453039787255249,-1.5290094650787902,0.17536038599487738,10.317404922202659,14.254629571247907,11.292677594885514,0.13463900983333588,0.0646136999130249,-0.058280229568481445,-0.10274311900138855,0.33772027492523193,0.08130230009555817,0.08291633427143097,0.0766291618347168,0.13175071775913239,0.08613013476133347,0.9845554232597351,0.4530397951602936,-1.529009461402893,0.17536038160324097,0.0646136999130249,-0.058280229568481445,-0.10274311900138855,0.05123782157897949,-0.06648507714271545,-0.07774311304092407,0.03931015729904175,-0.07668134570121765,-0.05274313688278198,0.029124408960342407,-0.08861799538135529,-0.027743130922317505,0.020931333303451538,-0.10200107097625732,-0.0027431249618530273,0.014932721853256226,-0.11650106310844421,0.02225688099861145,0.011276274919509888,-0.13176093995571136,0.04725688695907593,0.010051995515823364,-0.14740492403507233,0.07225686311721802,0.011290043592453003,-0.16304782032966614,0.0972568690776825,0.014959961175918579,-0.17830446362495422,0.12225684523582458,1.5707963705062866,-1.5707963705062866,0.043180108070373535,0.021362630650401115,14.99537735189353,-13.12500044644375,0.6143140818525389,29452.0
1.32,0.0099,1,1,-0.47409316897392273,0.30822351574897766,0.4258590638637543,-0.4179252088069916,0.24526213109493256,0.32962146401405334,0.36613184213638306,0.0890268012881279,0.01714257337152958,0.986285388469696,0.07766883820295334,0.11739293485879898,0.08617203682661057,0.48635300301494117,-2.838336103417489,0.2157870215394689,10.237032597841216,12.602164480358706,11.119874601492967,0.12798692286014557,0.05616796016693115,-0.0629613846540451,-0.09623759984970093,0.36613184213638306,0.0890268012881279,0.01714257337152958,0.07766883820295334,0.11739293485879898,0.08617203682661057,0.986285388469696,0.4863530099391937,-2.8383359909057617,0.21578702330589294,0.05616796016693115,-0.0629613846540451,-0.09623759984970093,0.04305914044380188,-0.07158644497394562,-0.07123759388923645,0.031460970640182495,-0.08215600252151489,-0.04623758792877197,0.021659016609191895,-0.09440977871417999,-0.021237581968307495,0.013894647359848022,-0.1080460399389267,0.0037624239921569824,0.008359074592590332,-0.12272904813289642,0.028762400150299072,0.005188584327697754,-0.13809722661972046,0.05376240611076355,0.004461228847503662,-0.15377219021320343,0.07876238226890564,0.0061949193477630615,-0.1693679392337799,0.1037624180316925,0.01034700870513916,-0.18450047075748444,0.1287623941898346,1.5707963705062866,-1.5707963705062866,0.03833770751953125,0.0745636373758316,14.997688675946765,-14.062500223221875,0.2687080950674554,29842.0
1.3395,0.0093,1,1,-0.4403635859489441,0.328745037317276,0.44577133655548096,-0.4205949008464813,0.24373789131641388,0.3345143795013428,0.5365579128265381,0.16970661282539368,0.07895075529813766,0.989112913608551,0.08227028697729111,0.08749871701002121,0.08502476662397385,0.3797075826900724,-3.389620036443816,0.21442904241012387,10.365107896558193,9.154788432470326,10.658285852529064,0.14140412211418152,0.01976868510246277,-0.08500714600086212,-0.11125695705413818,0.5365579128265381,0.16970661282539368,0.07895075529813766,0.08227028697729111,0.08749871701002121,0.08502476662397385,0.989112913608551,0.37970757484436035,-3.389620065689087,0.21442903578281403,0.01976868510246277,-0.08500714600086212,-0.11125695705413818,0.006931185722351074,-0.09403108060359955,-0.0862569510936737,-0.004336625337600708,-0.1049521416425705,-0.061256974935531616,-0.013757288455963135,-0.11750142276287079,-0.03625696897506714,-0.021098822355270386,-0.1313699185848236,-0.011256963014602661,-0.0261804461479187,-0.14621612429618835,0.013743042945861816,-0.028877079486846924,-0.16167451441287994,0.038743048906326294,-0.029122263193130493,-0.17736440896987915,0.06374305486679077,-0.026909977197647095,-0.19289951026439667,0.08874303102493286,-0.022294729948043823,-0.20789724588394165,0.11374306678771973,1.5707963705062866,-1.5707963705062866,-0.013791918754577637,0.021362630650401115,14.998844337973383,-14.531250111610937,-0.6544694028603503,29452.0
1.3599,0.0096,1,1,-0.523667573928833,0.27527475357055664,0.412898987531662,-0.4233315885066986,0.24205923080444336,0.339624285697937,0.11996600776910782,-0.10591468960046768,-0.12801645696163177,0.9911776185035706,0.10228891670703888,0.02539222501218319,0.0803564190864563,0.29330641441803623,-3.3988870380889646,0.34263152004717995,11.945008031232904,1.9425425260854212,9.473083105290216,0.12860701978206635,0.1003359854221344,-0.03321552276611328,-0.07327470183372498,0.11996600776910782,-0.10591468960046768,-0.12801645696163177,0.10228891670703888,0.02539222501218319,0.0803564190864563,0.9911776185035706,0.2933064103126526,-3.3988869190216064,0.3426315188407898,0.1003359854221344,-0.03321552276611328,-0.07327470183372498,0.08779475092887878,-0.042646899819374084,-0.0482746958732605,0.07688334584236145,-0.05392405390739441,-0.02327468991279602,0.0678703784942627,-0.06676927208900452,0.001725316047668457,0.060977816581726074,-0.08086629211902618,0.026725322008132935,0.05637538433074951,-0.09586797654628754,0.051725298166275024,0.054176390171051025,-0.11140495538711548,0.0767253041267395,0.05443498492240906,-0.12709464132785797,0.10172531008720398,0.05714482069015503,-0.14255072176456451,0.12672528624534607,0.0622391402721405,-0.15739259123802185,0.15172532200813293,-0.6508947610855103,1.5707963705062866,0.43386948108673096,0.20000000298023224,-0.0005778310133077724,0.2343749441945313,-3.024874897338035,33452.0
1.3801,0.0097,1,1,-0.5304800271987915,0.28365078568458557,0.4354007840156555,-0.42596185207366943,0.24032841622829437,0.3446357548236847,0.1394486278295517,-0.12215764820575714,-0.13488170504570007,0.9909010529518127,0.10667549073696136,-0.0065575093030929565,0.08179528266191483,0.31716134698728476,-2.831106153690142,0.38422330521343795,12.14781830123609,-1.7447421783197805,9.252031157179667,0.1450488418340683,0.10451817512512207,-0.0433223694562912,-0.09076502919197083,0.1394486278295517,-0.12215764820575714,-0.13488170504570007,0.10667549073696136,-0.0065575093030929565,0.08179528266191483,0.9909010529518127,0.31716135144233704,-2.831106185913086,0.3842233121395111,0.10451817512512207,-0.0433223694562912,-0.09076502919197083,0.09228008985519409,-0.053143903613090515,-0.06576502323150635,0.08172908425331116,-0.06475898623466492,-0.04076504707336426,0.07312500476837158,-0.0778815895318985,-0.01576504111289978,0.0666796863079071,-0.09218861162662506,0.009234964847564697,0.0625518262386322,-0.10732775926589966,0.034234970808029175,0.060843050479888916,-0.122926265001297,0.05923497676849365,0.06159549951553345,-0.13860003650188446,0.08423495292663574,0.06479057669639587,-0.1539631336927414,0.10923498868942261,0.07034963369369507,-0.1686372607946396,0.1342349648475647,-0.5023624897003174,1.5707963705062866,0.4937692880630493,0.20000000298023224,-7.500288915506654,7.617187472097266,-3.4669787935591283,37452.0
1.4002,0.0091,1,1,-0.5276423096656799,0.2808762192726135,0.43231695890426636,-0.42851266264915466,0.2385328859090805,0.34960058331489563,0.14363564550876617,-0.15547920763492584,-0.17367593944072723,0.990020215511322,0.10961412638425827,-0.030061788856983185,0.08330052345991135,-0.2660390070965011,-1.6176196256065063,0.4760393790613913,12.279246534157656,-4.461280917337201,9.138948156944451,0.13587363064289093,0.09912964701652527,-0.04234333336353302,-0.08271637558937073,0.14363564550876617,-0.15547920763492584,-0.17367593944072723,0.10961412638425827,-0.030061788856983185,0.08330052345991135,0.990020215511322,-0.26603901386260986,-1.6176196336746216,0.4760393798351288,0.09912964701652527,-0.04234333336353302,-0.08271637558937073,0.08720386028289795,-0.05254179239273071,-0.05771636962890625,0.07702028751373291,-0.06448028981685638,-0.03271639347076416,0.06882968544960022,-0.0778648853302002,-0.007716387510299683,0.06283372640609741,-0.09236598014831543,0.017283618450164795,0.05918005108833313,-0.10762651264667511,0.04228362441062927,0.057958632707595825,-0.12327072024345398,0.06728363037109375,0.05919957160949707,-0.13891339302062988,0.09228360652923584,0.0628722608089447,-0.15416936576366425,0.1172836422920227,0.06888630986213684,-0.16866296529769897,0.1422836184501648,-0.6964104175567627,1.5707963705062866,0.4873546361923218,0.20000000298023224,-11.250144457753327,11.308593736048632,-3.6931447940295867,41452.0
1.4203,0.0103,1,1,-0.5286878347396851,0.2857568860054016,0.4632446765899658,-0.4310339689254761,0.23663711547851562,0.35462135076522827,0.15376697480678558,-0.18729156255722046,0.01595475897192955,0.9903297424316406,0.10064990818500519,-0.03972739726305008,0.08681201189756393,-1.4440492999830825,0.3052029880340156,0.4072995294799473,11.148445774499463,-5.518185784679576,9.480460226684059,0.15410403907299042,0.09765386581420898,-0.049119770526885986,-0.10862332582473755,0.15376697480678558,-0.18729156255722046,0.01595475897192955,0.10064990818500519,-0.03972739726305008,0.08681201189756393,0.9903297424316406,-1.44404935836792,0.30520299077033997,0.4072995185852051,0.09765386581420898,-0.049119770526885986,-0.10862332582473755,0.08605566620826721,-0.05968931317329407,-0.08362331986427307,0.07625371217727661,-0.07194307446479797,-0.058623313903808594,0.06848934292793274,-0.08557935059070587,-0.033623337745666504,0.06295377016067505,-0.1002623438835144,-0.008623331785202026,0.05978325009346008,-0.11563052237033844,0.01637667417526245,0.05905589461326599,-0.13130547106266022,0.04137665033340454,0.06078958511352539,-0.1469012349843979,0.0663766860961914,0.0649416446685791,-0.16203376650810242,0.0913766622543335,0.07140982151031494,-0.17633046209812164,0.11637669801712036,0.021280646324157715,1.5707963705062866,0.5241550207138062,0.03350847214460373,-5.01542661903425,13.154296868024316,-3.010120654550349,37452.0
1.4398,0.0095,1,1,-0.525712788105011,0.2816341817378998,0.4633185565471649,-0.43344172835350037,0.23470625281333923,0.3595336377620697,0.14348754286766052,-0.22507911920547485,-0.006739569362252951,0.9921526312828064,0.0794677883386612,-0.03149912878870964,0.09123502671718597,-2.484749270752105,1.6729742278121302,0.3677547497960651,8.765641571396248,-4.416397887028382,10.169223698727812,0.1465861201286316,0.09227105975151062,-0.04692792892456055,-0.10378491878509521,0.14348754286766052,-0.22507911920547485,-0.006739569362252951,0.0794677883386612,-0.03149912878870964,0.09123502671718597,0.9921526312828064,-2.4847493171691895,1.6729742288589478,0.3677547574043274,0.09227105975151062,-0.04692792892456055,-0.10378491878509521,0.0810045599937439,-0.05785036087036133,-0.07878494262695312,0.07158544659614563,-0.07040077447891235,-0.05378493666648865,0.06424558162689209,-0.0842701643705368,-0.02878493070602417,0.059165745973587036,-0.09911699593067169,-0.0037849247455596924,0.05647099018096924,-0.11457569897174835,0.021215081214904785,0.05622771382331848,-0.13026562333106995,0.04621508717536926,0.05844184756278992,-0.14580045640468597,0.07121506333351135,0.06305891275405884,-0.16079765558242798,0.09621503949165344,0.06996524333953857,-0.17488792538642883,0.12121507525444031,0.6338731050491333,1.5707963705062866,0.4906812906265259,0.07959803938865662,4.992286690482875,14.077148434012159,-1.6325937104628385,33452.0
1.46,0.009,1,1,-0.5236921906471252,0.28093209862709045,0.5035744905471802,-0.4358499348163605,0.2326480597257614,0.36457571387290955,0.15003278851509094,-0.26349326968193054,0.3107752203941345,0.9933363199234009,0.06299642473459244,-0.02403334528207779,0.09346062690019608,-2.5949364955896974,2.4642756872399025,0.2870374996595578,6.942618035945344,-3.412362584691986,10.542921704769414,0.171371728181839,0.08784225583076477,-0.04828403890132904,-0.13899877667427063,0.15003278851509094,-0.26349326968193054,0.3107752203941345,0.06299642473459244,-0.02403334528207779,0.09346062690019608,0.9933363199234009,-2.5949366092681885,2.464275598526001,0.2870374917984009,0.08784225583076477,-0.04828403890132904,-0.13899877667427063,0.07692739367485046,-0.05955785512924194,-0.11399880051612854,0.06791052222251892,-0.07240033149719238,-0.08899879455566406,0.06101366877555847,-0.08649523556232452,-0.06399878859519958,0.056406646966934204,-0.10149551928043365,-0.03899878263473511,0.054202914237976074,-0.11703182756900787,-0.01399877667427063,0.05445671081542969,-0.13272158801555634,0.011001229286193848,0.057161808013916016,-0.14817848801612854,0.03600120544433594,0.06225159764289856,-0.16302190721035004,0.06100118160247803,0.06960076093673706,-0.17688636481761932,0.08600121736526489,0.29065191745758057,0.5351384878158569,0.2004612684249878,0.021362630650401115,9.996143345241439,14.53857421700608,-0.8851976983796437,29452.0
1.4798,0.01,1,1,-0.5006276369094849,0.2625933587551117,0.4482101500034332,-0.43817847967147827,0.23052705824375153,0.3695888817310333,0.21910569071769714,-0.30386075377464294,-0.11240898817777634,0.9944040179252625,0.039378199726343155,0.004519025329500437,0.09791556000709534,-1.404524394138835,2.0719628970572943,0.3451648853236315,4.542624060158244,0.07310925876987039,11.25005839042442,0.10540137439966202,0.06244915723800659,-0.03206630051136017,-0.0786212682723999,0.21910569071769714,-0.30386075377464294,-0.11240898817777634,0.039378199726343155,0.004519025329500437,0.09791556000709534,0.9944040179252625,-1.4045244455337524,2.071962833404541,0.3451648950576782,0.06244915723800659,-0.03206630051136017,-0.0786212682723999,0.05189475417137146,-0.043678268790245056,-0.053621262311935425,0.043286800384521484,-0.056798338890075684,-0.028621286153793335,0.036837249994277954,-0.07110346853733063,-0.0036212801933288574,0.0327049195766449,-0.08624140918254852,0.02137872576713562,0.030991584062576294,-0.10183940827846527,0.0463787317276001,0.031739383935928345,-0.11751338839530945,0.07137873768806458,0.03492993116378784,-0.1328774243593216,0.09637871384620667,0.04048466682434082,-0.1475532054901123,0.12137874960899353,0.048266828060150146,-0.1611793339252472,0.14637872576713562,-0.44304895401000977,-1.5707963705062866,-0.11145436763763428,0.20000000298023224,-2.5019283273792805,-0.23071289149696028,0.5290756729303594,33452.0
1.4998,0.0093,1,1,-0.5019376277923584,0.2600843906402588,0.4416327178478241,-0.4404343068599701,0.2283385843038559,0.37459123134613037,0.21280042827129364,-0.3056701421737671,-0.16174736618995667,0.9941087961196899,0.0213330015540123,0.025788575410842896,0.10308058559894562,-0.014819225424475873,1.5564634601241991,0.28822493661059695,2.7388517711758595,2.6867392552954765,11.904069488323696,0.09635879099369049,0.061503320932388306,-0.03174580633640289,-0.06704148650169373,0.21280042827129364,-0.3056701421737671,-0.16174736618995667,0.0213330015540123,0.025788575410842896,0.10308058559894562,0.9941087961196899,-0.014819225296378136,1.5564634799957275,0.2882249355316162,0.061503320932388306,-0.03174580633640289,-0.06704148650169373,0.05131906270980835,-0.04368370771408081,-0.04204148054122925,0.04312765598297119,-0.057067811489105225,-0.017041504383087158,0.03713083267211914,-0.071568563580513,0.00795850157737732,0.033476293087005615,-0.08682887256145477,0.0329585075378418,0.03225395083427429,-0.10247302055358887,0.057958513498306274,0.03349396586418152,-0.11811576783657074,0.08295848965644836,0.03716576099395752,-0.13337194919586182,0.10795852541923523,0.043178945779800415,-0.147865891456604,0.13295850157737732,0.051385462284088135,-0.16124074161052704,0.1579584777355194,-0.7109609842300415,-1.5707963705062866,-0.1533658504486084,0.20000000298023224,-8.750964163689641,-7.61535644574848,1.837097868728904,37452.0
1.5199,0.0093,1,1,-0.5024076104164124,0.25410786271095276,0.41709378361701965,-0.4425971508026123,0.22610487043857574,0.37953993678092957,0.22687162458896637,-0.3132483959197998,-0.21201932430267334,0.9932045936584473,0.01950150728225708,0.04210972413420677,0.10671957582235336,0.5730531444088524,0.6959997071870689,0.19367193211036915,2.7442173015977827,4.558950217251557,12.375003953742306,0.07597203552722931,0.05981045961380005,-0.028002992272377014,-0.03755384683609009,0.22687162458896637,-0.3132483959197998,-0.21201932430267334,0.01950150728225708,0.04210972413420677,0.10671957582235336,0.9932045936584473,0.5730531215667725,0.6959996819496155,0.19367192685604095,0.05981045961380005,-0.028002992272377014,-0.03755384683609009,0.050002217292785645,-0.040251731872558594,-0.01255384087562561,0.04223087430000305,-0.053884029388427734,0.012446165084838867,0.03668779134750366,-0.06856419146060944,0.037446171045303345,0.033509403467178345,-0.08393076062202454,0.06244617700576782,0.03277403116226196,-0.09960533678531647,0.0874461829662323,0.03449973464012146,-0.11520196497440338,0.11244615912437439,0.03864407539367676,-0.13033662736415863,0.13744619488716125,0.04510495066642761,-0.1446366310119629,0.16244617104530334,0.053723305463790894,-0.15774989128112793,0.18744614720344543,-1.096501111984253,-1.5707963705062866,-0.03397226333618164,0.20000000298023224,-11.87548208184482,-11.307678222874241,2.7789667995661174,41452.0
1.5398,0.0055,1,1,-0.5006906390190125,0.2489912360906601,0.41336309909820557,-0.4447287321090698,0.22376051545143127,0.384583055973053,0.24837537109851837,-0.3185025751590729,-0.22499148547649384,0.9925572276115417,0.02374393120408058,0.04938451200723648,0.10874515771865845,-0.21955103355564604,-0.6314625255428516,0.17805192639532277,3.3322688527366684,5.328728183498986,12.65993146309409,0.06779833883047104,0.05596190690994263,-0.02523072063922882,-0.028780043125152588,0.24837537109851837,-0.3185025751590729,-0.22499148547649384,0.02374393120408058,0.04938451200723648,0.10874515771865845,0.9925572276115417,-0.21955102682113647,-0.6314625144004822,0.1780519336462021,0.05596190690994263,-0.02523072063922882,-0.028780043125152588,0.04654666781425476,-0.03778405487537384,-0.0037800371646881104,0.03921109437942505,-0.05165572464466095,0.02121993899345398,0.03413587808609009,-0.06650412082672119,0.04621994495391846,0.03144592046737671,-0.0819636732339859,0.07121995091438293,0.031207501888275146,-0.09765367209911346,0.09621995687484741,0.033426493406295776,-0.11318780481815338,0.1212199330329895,0.03804820775985718,-0.12818357348442078,0.14621996879577637,0.04495888948440552,-0.1422717124223709,0.17121994495391846,0.053988367319107056,-0.155105322599411,0.19621992111206055,-0.6429833769798279,-1.5707963705062866,0.14603447914123535,0.20000000298023224,-13.437741040922411,-13.15383911143712,3.3488218182696894,44230.0
1.56,0.0064,1,1,-0.4946870505809784,0.24698524177074432,0.42352399230003357,-0.4467769265174866,0.22135956585407257,0.3896059989929199,0.2781166434288025,-0.3224280774593353,-0.23164209723472595,0.9926052689552307,0.022663362324237823,0.04253425449132919,0.11139994114637375,-1.3757456096091663,-1.881398940518075,0.2555255961269248,3.1322379435178607,4.5535069941030715,12.931538635678166,0.06405065208673477,0.04791012406349182,-0.025625675916671753,-0.03391799330711365,0.2781166434288025,-0.3224280774593353,-0.23164209723472595,0.022663362324237823,0.04253425449132919,0.11139994114637375,0.9926052689552307,-1.3757456541061401,-1.8813989162445068,0.2555255889892578,0.04791012406349182,-0.025625675916671753,-0.03391799330711365,0.03889569640159607,-0.038469865918159485,-0.00891798734664917,0.03200152516365051,-0.052566081285476685,0.016082018613815308,0.027397364377975464,-0.06756724417209625,0.0410819947719574,0.025196582078933716,-0.0831039696931839,0.06608200073242188,0.025453388690948486,-0.09879368543624878,0.09108200669288635,0.028161436319351196,-0.1142500638961792,0.11608198285102844,0.033254027366638184,-0.1290925145149231,0.1410820186138153,0.04060584306716919,-0.14295557141304016,0.1660819947719574,0.05003577470779419,-0.15549787878990173,0.19108203053474426,0.1213526725769043,-1.5707963705062866,0.16669023036956787,0.20000000298023224,-3.2423725348164147,-14.076919555718561,3.892036163437837,44230.0
1.5802,0.0091,1,1,-0.4932195842266083,0.24182012677192688,0.41358163952827454,-0.44871240854263306,0.21894153952598572,0.394535630941391,0.2978285849094391,-0.32802310585975647,-0.2438919097185135,0.9931780695915222,0.0115857794880867,0.022863104939460754,0.11374679952859879,-2.144736303846745,-2.3501744145482206,0.23978506572779557,1.6182792693167027,2.4517801673024193,13.101625934928828,0.053545016795396805,0.04450717568397522,-0.022878587245941162,-0.019046008586883545,0.2978285849094391,-0.32802310585975647,-0.2438919097185135,0.0115857794880867,0.022863104939460754,0.11374679952859879,0.9931780695915222,-2.1447362899780273,-2.3501744270324707,0.2397850602865219,0.04450717568397522,-0.022878587245941162,-0.019046008586883545,0.03589484095573425,-0.03599578142166138,0.005953997373580933,0.02944052219390869,-0.05029875040054321,0.030953973531723022,0.025303125381469727,-0.06543530523777008,0.0559539794921875,0.023584574460983276,-0.08103273808956146,0.08095398545265198,0.024327129125595093,-0.09670697152614594,0.10595396161079407,0.027512550354003906,-0.11207206547260284,0.13095399737358093,0.033062368631362915,-0.1267496943473816,0.15595397353172302,0.040839940309524536,-0.1403784304857254,0.1809540092945099,0.05065378546714783,-0.15262268483638763,0.20595398545265198,0.7358478307723999,-1.5707963705062866,0.2785220146179199,0.20000000298023224,5.878813732591793,-14.53845977785928,4.2322107619392035,44230.0
1.6004,0.01,1,1,-0.48318085074424744,0.23851768672466278,0.43825778365135193,-0.4506353735923767,0.21637754142284393,0.39963671565055847,0.3130684792995453,-0.326069176197052,-0.06461086124181747,0.9931849241256714,-0.008054939098656178,-0.0029978679958730936,0.11622331291437149,-1.7854740085822929,-2.1446919622145955,0.187683548083217,-0.9567161909555002,-0.23391245619438408,13.350813122034596,0.05514509230852127,0.03254547715187073,-0.022140145301818848,-0.03862106800079346,0.3130684792995453,-0.326069176197052,-0.06461086124181747,-0.008054939098656178,-0.0029978679958730936,0.11622331291437149,0.9931849241256714,-1.7854740619659424,-2.1446919441223145,0.18768355250358582,0.03254547715187073,-0.022140145301818848,-0.03862106800079346,0.024357914924621582,-0.035526588559150696,-0.01362106204032898,0.01836526393890381,-0.050029054284095764,0.011378943920135498,0.014715045690536499,-0.0652904063463211,0.036378949880599976,0.013497203588485718,-0.08093489706516266,0.061378926038742065,0.014741659164428711,-0.09657728672027588,0.08637896180152893,0.018417835235595703,-0.11183242499828339,0.11137893795967102,0.02443516254425049,-0.12632465362548828,0.1363789141178131,0.03264549374580383,-0.13969716429710388,0.16137894988059998,0.0428466796875,-0.15162062644958496,0.18637892603874207,0.8670848608016968,-1.5707963705062866,0.18788492679595947,0.20000000298023224,10.439406866295897,-14.76922988892964,4.7305851361507,44230.0
1.6197,0.0082,1,1,-0.4769544005393982,0.23203995823860168,0.43725645542144775,-0.4524008631706238,0.21386276185512543,0.4045271873474121,0.3077770471572876,-0.32078471779823303,-0.03454155847430229,0.9923735857009888,-0.02252575196325779,-0.026471585035324097,0.1182563379406929,-0.2788002425394019,-1.9062002939597105,0.1902881695635849,-2.924826626114324,-2.7060415109031246,13.660298252048104,0.044771548360586166,0.024553537368774414,-0.018177196383476257,-0.032729268074035645,0.3077770471572876,-0.32078471779823303,-0.03454155847430229,-0.02252575196325779,-0.026471585035324097,0.1182563379406929,0.9923735857009888,-0.27880024909973145,-1.9062002897262573,0.19028817117214203,0.024553537368774414,-0.018177196383476257,-0.032729268074035645,0.016781091690063477,-0.031808868050575256,-0.007729291915893555,0.011236816644668579,-0.04648858308792114,0.017270714044570923,0.008057206869125366,-0.06185488402843475,0.0422707200050354,0.0073205530643463135,-0.07752940058708191,0.06727069616317749,0.009045034646987915,-0.09312617778778076,0.09227073192596436,0.01318812370300293,-0.10826116800308228,0.11727070808410645,0.019647866487503052,-0.12256170064210892,0.1422707438468933,0.028265178203582764,-0.13567563891410828,0.1672707200050354,0.03882783651351929,-0.14728006720542908,0.1922706961631775,0.3554227352142334,-1.5707963705062866,0.10228550434112549,0.20000000298023224,12.719703433147949,-14.88461494446482,5.349555396177748,44230.0
1.64,0.0094,1,1,-0.4641996920108795,0.2392524778842926,0.45114511251449585,-0.45415082573890686,0.21119636297225952,0.40960341691970825,0.3116151988506317,-0.23279601335525513,0.06406883895397186,0.9910914897918701,-0.02817639894783497,-0.044243600219488144,0.12241040915250778,1.417647253568255,-1.489443413395701,0.12921342190922858,-3.8360262975622414,-4.63459389848238,14.237228676554302,0.05112570524215698,0.010048866271972656,-0.02805611491203308,-0.0415416955947876,0.3116151988506317,-0.23279601335525513,0.06406883895397186,-0.02817639894783497,-0.044243600219488144,0.12241040915250778,0.9910914897918701,1.4176472425460815,-1.4894434213638306,0.12921342253684998,0.010048866271972656,-0.02805611491203308,-0.0415416955947876,0.002715080976486206,-0.04192870855331421,-0.01654168963432312,-0.00235825777053833,-0.056777775287628174,0.008458316326141357,-0.005046218633651733,-0.07223765552043915,0.033458322286605835,-0.005282610654830933,-0.08792769908905029,0.05845832824707031,-0.003061652183532715,-0.10346154868602753,0.0834583044052124,0.0015619993209838867,-0.11845671385526657,0.10845834016799927,0.008474469184875488,-0.13254396617412567,0.13345831632614136,0.01750558614730835,-0.14537644386291504,0.15845829248428345,0.02843296527862549,-0.15663813054561615,0.1834583282470703,1.153676152229309,-1.5707963705062866,-0.033109426498413086,0.20000000298023224,13.859851716573974,-14.942307472232411,6.503416245190104,44230.0
